NAFC_Y2K_HEADER
12488022  46 55.73 -048 27.35 2017-11-12 11:04 0109 S4020 024 T Fishset # 24   1
12488022 001577  1.00 A 06 #PTCSM--------------            0 000 0000 0105 000 4
12488022 9 27 15 02 1023.5 006.5 006.5 03 02 25 05 04                          8
-- CHANNEL STATS -->
# span     scan =    293.000,  1879.000
# span     pres =      0.423,   105.637
# span     temp =     -1.237,     4.941
# span     cond =      2.576,     3.101
# span      sal =     27.822,    33.278
# span     sigt =     21.996,    26.758
-- END --
!! ACQUIRED USING > Software Version AquireV2 AF V1.2
cast   1 12 Nov 2017 11:27:11 samples 1 to 2219, avg = 4, stop = mag switch
-- CHANNEL STATS -->
# span     scan =      1.000,  2219.000
# span    depth =      0.067,   104.754
# span     temp =     -1.242,     4.942
# span     pres =      0.068,   105.658
# span     cond =     -0.000,     3.101
# span      sal =     -0.000,    33.278
# span      sig =     -0.029,    26.759
-- END --
-- HISTORY --> Thu Nov 30 11:30:56 2017
>READ # (DP) T C scan pres temp cond
>STABILIZE_RESTRICT USING= pres  5.0 5
>RESTRICT USING= pres 0.0 2000.0
>RESTRICT USING= cond 2.0 5.0
>RESTRICT USING= temp -1.9 22.0
>MEDIANFILTER pres 7 1
>MEDIANFILTER temp 7 1
>MEDIANFILTER cond 7 1
>SALINITY PRESSURE=pres CONDUCTIVITY=cond TEMPERATURE=temp RESULT=sal
>RESTRICT USING= sal 25.0 36.0
>MEDIANFILTER sal 7 1
>SIGMAT SALINITY=sal TEMPERATURE=temp RESULT=sigt
>MEDIANFILTER sigt 7 1
>HISTORY_ON
>WRITEFILE  .p???? scan pres temp cond sal sigt
-- END --
 scan     pres     temp     cond      sal     sigt 
-- DATA --
  306       0.595      4.8021     3.09009    32.24347    25.51196 
  307       0.636      4.8021     3.09015    32.24414    25.51245 
  308       0.698      4.8022     3.09022    32.24482    25.51306 
  309       0.751      4.8027     3.09052    32.24777    25.51526 
  310        0.76      4.8035     3.09079    32.25011    25.51709 
  311       0.768      4.8036     3.09084    32.25035    25.51721 
  312       0.839      4.8038     3.09084    32.25035    25.51721 
  313       1.005       4.804     3.09088    32.25035    25.51721 
  314       1.234       4.804     3.09092    32.25035    25.51721 
  315       1.479      4.8052     3.09097    32.25018    25.51697 
  316       1.731      4.8068     3.09109    32.25017    25.51672 
  317       1.948      4.8072     3.09116    32.25017    25.51672 
  318       2.078      4.8072     3.09116    32.25012    25.51672 
  319       2.199      4.8072     3.09117    32.24996     25.5166 
  320       2.425      4.8073     3.09117    32.24996     25.5166 
  321       2.713      4.8073     3.09116     32.2497    25.51636 
  322       2.969      4.8073     3.09116    32.24958    25.51624 
  323       3.184      4.8073     3.09117    32.24957    25.51624 
  324       3.365       4.808     3.09118      32.249    25.51575 
  325       3.501      4.8091     3.09121      32.249    25.51575 
  326        3.61      4.8099     3.09131      32.249    25.51575 
  327       3.776      4.8102     3.09139      32.249    25.51575 
  328       4.011      4.8102     3.09147    32.24981    25.51611 
  329       4.219      4.8102      3.0915    32.24982    25.51611 
  330       4.352      4.8102      3.0915    32.24982    25.51611 
  331        4.47      4.8102      3.0915    32.24982    25.51611 
  332       4.665      4.8102      3.0915    32.24982    25.51611 
  333       4.957      4.8102      3.0915    32.24982    25.51611 
  334       5.271      4.8102      3.0915    32.24982    25.51611 
  335       5.554      4.8102      3.0915    32.24982    25.51611 
  336       5.864      4.8102     3.09161    32.25049     25.5166 
  337       6.254      4.8102     3.09166    32.25066    25.51685 
  338       6.679      4.8102     3.09166    32.25087    25.51697 
  339        7.06      4.8102     3.09177    32.25087    25.51697 
  340       7.355      4.8106     3.09181     32.2513    25.51721 
  341       7.603      4.8112     3.09184    32.25166    25.51733 
  342       7.882      4.8121     3.09189    32.25174    25.51746 
  343        8.22      4.8136     3.09225    32.25184    25.51746 
  344       8.591       4.815     3.09232     32.2522    25.51746 
  345       8.955       4.816     3.09235    32.25222    25.51733 
  346       9.315      4.8164     3.09243    32.25222    25.51733 
  347       9.692      4.8166     3.09248    32.25222    25.51746 
  348      10.065      4.8167     3.09249    32.25222    25.51746 
  349      10.411      4.8169     3.09252    32.25237    25.51746 
  350      10.753      4.8169     3.09255    32.25239    25.51746 
  351      11.111      4.8169     3.09259    32.25266     25.5177 
  352      11.469      4.8169     3.09261     32.2527     25.5177 
  353      11.817       4.817     3.09265     32.2527     25.5177 
  354      12.179      4.8173     3.09271     32.2527     25.5177 
  355      12.568      4.8179     3.09276     32.2527    25.51758 
  356      12.965      4.8185     3.09279    32.25255    25.51733 
  357      13.341       4.819     3.09283    32.25255    25.51733 
  358      13.693      4.8195     3.09291    32.25255    25.51733 
  359      14.048       4.820     3.09297    32.25255    25.51733 
  360      14.427      4.8201       3.093    32.25261    25.51733 
  361      14.829      4.8201     3.09303    32.25275    25.51733 
  362      15.236      4.8201     3.09306    32.25282    25.51746 
  363      15.623      4.8201     3.09307    32.25289    25.51746 
  364      15.967      4.8202      3.0931    32.25289    25.51746 
  365      16.276      4.8205     3.09314     32.2529    25.51746 
  366      16.593      4.8209     3.09319     32.2529    25.51746 
  367      16.957      4.8213     3.09323     32.2529    25.51733 
  368      17.369      4.8217     3.09331     32.2529    25.51733 
  369      17.795      4.8217     3.09331    32.25282    25.51733 
  370      18.216      4.8217     3.09331    32.25282    25.51733 
  371      18.631      4.8217     3.09331    32.25285    25.51733 
  372      19.023      4.8213      3.0933    32.25285    25.51733 
  373      19.384      4.8205     3.09327    32.25285    25.51746 
  374      19.726      4.8198     3.09323    32.25289    25.51758 
  375      20.066      4.8188     3.09319    32.25323    25.51794 
  376      20.419      4.8179     3.09317    32.25327    25.51807 
  377      20.795      4.8178     3.09315    32.25327    25.51807 
  378      21.197      4.8177     3.09315    32.25327    25.51807 
  379      21.609      4.8177     3.09317    32.25329    25.51807 
  380      22.003      4.8177     3.09318    32.25329    25.51807 
  381      22.378      4.8177     3.09319    32.25329    25.51807 
  382      22.762      4.8177     3.09326    32.25329    25.51807 
  383      23.169      4.8192     3.09341    32.25321    25.51782 
  384      23.583      4.8212     3.09358     32.2532    25.51758 
  385      23.984      4.8225     3.09367     32.2532    25.51746 
  386      24.372      4.8227     3.09368     32.2532    25.51746 
  387      24.751      4.8227     3.09369    32.25309    25.51733 
  388      25.122      4.8231     3.09376    32.25308    25.51733 
  389       25.48      4.8241     3.09388    32.25293    25.51709 
  390      25.825       4.825     3.09395    32.25288    25.51697 
  391      26.159      4.8254     3.09398    32.25288    25.51697 
  392      26.489      4.8257     3.09402    32.25287    25.51685 
  393      26.834      4.8261     3.09406    32.25278    25.51672 
  394      27.207      4.8262     3.09408    32.25276    25.51672 
  395      27.588      4.8262      3.0941    32.25272    25.51672 
  396      27.958      4.8262      3.0941    32.25258     25.5166 
  397      28.316      4.8262      3.0941     32.2524    25.51648 
  398      28.673      4.8262      3.0941    32.25222    25.51636 
  399      29.028      4.8256     3.09405    32.25204    25.51624 
  400      29.379      4.8241     3.09388    32.25137    25.51624 
  401       29.73       4.821     3.09355     32.2511    25.51611 
  402      30.082      4.8171     3.09327    32.25078    25.51611 
  403      30.432      4.8135     3.09301    32.25039    25.51611 
  404      30.783      4.8076     3.09233    32.24951    25.51624 
  405      31.136      4.7973     3.09132    32.24881    25.51672 
  406      31.487      4.7866     3.09058    32.24866     25.5177 
  407       31.84      4.7783     3.08997    32.24847    25.51843 
  408      32.203      4.7679     3.08884    32.24847    25.51953 
  409      32.575      4.7507     3.08729    32.24866    25.52161 
  410      32.946      4.7309     3.08594    32.24847    25.52356 
  411      33.315      4.7147     3.08485    32.24638    25.52356 
  412      33.698      4.6989     3.08346    32.24847    25.52686 
  413      34.107      4.6715     3.08072    32.24847    25.52979 
  414       34.53       4.631     3.07728    32.24752    25.53333 
  415      34.934      4.5893     3.07417    32.24752    25.53772 
  416        35.3      4.5499     3.07074    32.24752    25.54175 
  417      35.648      4.5064     3.06711    32.24902    25.54749 
  418      35.997      4.4567     3.06328    32.25132    25.55444 
  419       36.34      4.4047     3.05943    32.25711    25.56445 
  420      36.675      4.3579     3.05641    32.25711    25.56921 
  421      37.026      4.3188     3.05361    32.25711    25.57312 
  422      37.417      4.2757     3.04952    32.25836    25.57849 
  423      37.857      4.1914     3.04038    32.26714    25.59387 
  424       38.33      4.0392     3.02667    32.26714    25.60901 
  425      38.798       3.859     3.01399    32.26714    25.62646 
  426      39.232       3.699     3.00268    32.27845    25.65051 
  427      39.634      3.5468      2.9901    32.28226    25.66772 
  428      40.022      3.3644     2.97455    32.28226    25.68433 
  429      40.403      3.1436     2.95678    32.28226    25.70374 
  430      40.773      2.9059     2.93775    32.28322    25.72485 
  431      41.136      2.6524     2.91582    32.28492    25.74707 
  432      41.507      2.3666     2.89164    32.28579    25.77026 
  433      41.891      2.0593     2.86751    32.29266    25.79883 
  434      42.284      1.7606     2.84511    32.31131    25.83496 
  435      42.689      1.4796     2.82525    32.35013    25.88501 
  436      43.112      1.2068     2.80775    32.41023    25.95068 
  437      43.548      0.9603     2.79354    32.48515    26.02576 
  438      43.984      0.7738     2.78244    32.53753    26.07874 
  439      44.408      0.6477     2.77328    32.55156    26.09705 
  440      44.819      0.5447     2.76576    32.56242    26.11145 
  441      45.228       0.434     2.75871    32.58749    26.13745 
  442      45.641      0.3138      2.7506    32.60881    26.16089 
  443      46.051      0.1946     2.74196     32.6221    26.17749 
  444      46.454      0.0887     2.73439    32.63522    26.19324 
  445      46.849     -0.0062     2.72746    32.64497    26.20557 
  446       47.24     -0.1129     2.71911    32.64853    26.21326 
  447      47.637     -0.2355     2.71048    32.66531     26.2323 
  448      48.046     -0.3435     2.70482    32.70586    26.26965 
  449      48.466     -0.4219     2.70008     32.7233    26.28699 
  450      48.899     -0.4987     2.69363    32.72687    26.29297 
  451      49.341     -0.5897     2.68672    32.72882     26.2981 
  452      49.777      -0.679      2.6803    32.73902    26.30969 
  453      50.203     -0.7574     2.67477    32.74935    26.32092 
  454      50.625      -0.834     2.66968    32.76363    26.33533 
  455      51.028     -0.9141     2.66535    32.79203    26.36108 
  456      51.389     -0.9797     2.66426    32.84863    26.40918 
  457      51.719     -1.0113     2.66421    32.87754    26.43359 
  458      52.044     -1.0183     2.66378    32.88036    26.43616 
  459      52.372     -1.0203     2.66337    32.88232    26.43774 
  460      52.699     -1.0251     2.66279    32.88256    26.43811 
  461      53.026     -1.0316     2.66265    32.88394    26.43945 
  462      53.351      -1.036     2.66252    32.88541     26.4408 
  463       53.68     -1.0412     2.66242    32.88692    26.44214 
  464       54.03      -1.045     2.66212    32.88692    26.44226 
  465      54.411     -1.0477     2.66198    32.88692    26.44238 
  466      54.827      -1.048     2.66173    32.88942    26.44446 
  467      55.269     -1.0543     2.65988    32.88942    26.44458 
  468      55.717     -1.0779     2.65848    32.89024    26.44604 
  469       56.15     -1.1005     2.65793    32.89194    26.44812 
  470      56.556     -1.1193     2.65736    32.90456    26.45898 
  471      56.939     -1.1372     2.65682    32.91662    26.46936 
  472      57.296     -1.1487     2.65682    32.92815      26.479 
  473      57.622     -1.1487     2.65677    32.92896    26.47974 
  474      57.918     -1.1496     2.65677    32.92904    26.47974 
  475      58.198     -1.1515     2.65682    32.93156    26.48193 
  476      58.477     -1.1519     2.65683    32.93197     26.4823 
  477      58.755     -1.1534     2.65687    32.93399    26.48389 
  478      59.027     -1.1538     2.65705    32.93672    26.48621 
  479      59.293     -1.1551     2.65706    32.93813     26.4873 
  480      59.563     -1.1554     2.65707    32.93843    26.48755 
  481      59.842     -1.1578     2.65712    32.94158    26.49023 
  482      60.124     -1.1621     2.65727    32.94818    26.49573 
  483      60.402     -1.1628     2.65764    32.95383    26.50037 
  484      60.677     -1.1629     2.65783    32.95636    26.50232 
  485      60.945     -1.1658     2.65795    32.96103    26.50623 
  486      61.209     -1.1658     2.65823    32.96469    26.50916 
  487       61.48     -1.1658     2.65846    32.96548    26.50989 
  488      61.767     -1.1658     2.65853     32.9657    26.51001 
  489      62.064     -1.1629     2.65856     32.9664     26.5105 
  490       62.36     -1.1624     2.65863     32.9667    26.51074 
  491      62.656     -1.1622     2.65871     32.9667    26.51074 
  492      62.958     -1.1622     2.65876     32.9667    26.51074 
  493      63.275     -1.1622     2.65876    32.96689    26.51086 
  494      63.605     -1.1624     2.65878    32.96699    26.51099 
  495      63.933     -1.1624     2.65884    32.96761    26.51147 
  496      64.253     -1.1642     2.65895     32.9709    26.51416 
  497      64.577     -1.1642       2.659    32.97138    26.51453 
  498      64.922     -1.1677     2.65904    32.97557    26.51807 
  499      65.285     -1.1685      2.6591    32.97705    26.51929 
  500      65.649     -1.1691     2.65913    32.97789    26.52002 
  501      66.003     -1.1691     2.65917    32.97822    26.52026 
  502      66.358     -1.1699     2.65943    32.98244    26.52368 
  503       66.73     -1.1699     2.65951     32.9833    26.52441 
  504      67.117     -1.1711     2.65954    32.98479    26.52563 
  505      67.502     -1.1711     2.65956    32.98483    26.52576 
  506      67.872     -1.1699       2.660    32.98929     26.5293 
  507      68.239     -1.1699     2.66075    32.99931    26.53735 
  508      68.626     -1.1663     2.66143    33.00411    26.54114 
  509      69.036     -1.1612     2.66184    33.00438    26.54126 
  510      69.451     -1.1601      2.6621     33.0062    26.54272 
  511      69.858     -1.1597     2.66242    33.00987    26.54565 
  512      70.262     -1.1584     2.66284    33.01392    26.54895 
  513       70.67     -1.1553     2.66322    33.01545    26.55005 
  514      71.072     -1.1537     2.66345    33.01658     26.5509 
  515      71.464     -1.1532      2.6636    33.01783    26.55188 
  516      71.856     -1.1516     2.66379    33.01842    26.55237 
  517      72.262     -1.1505     2.66404    33.02037    26.55383 
  518      72.699     -1.1505      2.6642    33.02229    26.55542 
  519      73.175     -1.1505     2.66424    33.02238    26.55554 
  520      73.672     -1.1505     2.66425    33.02254    26.55566 
  521      74.151     -1.1505     2.66431     33.0229    26.55591 
  522      74.584     -1.1505     2.66458    33.02633    26.55872 
  523      74.979     -1.1505     2.66503    33.03222    26.56348 
  524      75.371     -1.1507     2.66556    33.03943    26.56934 
  525      75.793     -1.1507     2.66604    33.04572    26.57446 
  526      76.245       -1.15     2.66636    33.04904    26.57715 
  527      76.705     -1.1488     2.66665     33.0514    26.57898 
  528      77.163     -1.1483     2.66726    33.05889    26.58508 
  529      77.631     -1.1483     2.66816    33.07088    26.59473 
  530      78.109     -1.1431     2.66906    33.07713    26.59961 
  531      78.577     -1.1379     2.66997    33.08352    26.60474 
  532      79.017     -1.1326     2.67107     33.0924    26.61169 
  533      79.442     -1.1262     2.67229    33.10172    26.61902 
  534      79.877     -1.1191     2.67336     33.1082    26.62415 
  535       80.33     -1.1134     2.67411    33.11186    26.62683 
  536      80.797     -1.1091     2.67474    33.11541    26.62964 
  537      81.274     -1.1054     2.67546    33.12085    26.63391 
  538      81.753     -1.1023     2.67624    33.12777     26.6394 
  539      82.224     -1.0987     2.67712    33.13549    26.64551 
  540      82.684     -1.0936     2.67816    33.14375     26.6521 
  541      83.136     -1.0886     2.67909    33.15062    26.65747 
  542       83.59      -1.085     2.67975    33.15536    26.66125 
  543      84.055     -1.0821      2.6803    33.15936    26.66431 
  544      84.529     -1.0794     2.68085    33.16358    26.66772 
  545      84.997     -1.0777     2.68144    33.16945    26.67236 
  546      85.449     -1.0771     2.68214    33.17805    26.67932 
  547      85.892     -1.0768     2.68285    33.18711    26.68665 
  548      86.342     -1.0762     2.68353    33.19544    26.69336 
  549      86.808     -1.0754     2.68412     33.2023    26.69897 
  550      87.282     -1.0751     2.68456    33.20767    26.70325 
  551      87.751     -1.0748     2.68513    33.21482    26.70911 
  552      88.207      -1.072     2.68624    33.22656    26.71851 
  553      88.654     -1.0656     2.68777    33.24004    26.72925 
  554      89.106     -1.0571     2.68928    33.25091    26.73767 
  555      89.568     -1.0484     2.69055    33.25828    26.74341 
  556      90.027      -1.041     2.69154    33.26328    26.74719 
  557      90.461     -1.0357     2.69224    33.26667    26.74976 
  558      90.856     -1.0325     2.69267    33.26731    26.75012 
  559      91.226       -1.03     2.69289    33.26735    26.75012 
  560      91.612     -1.0272     2.69303    33.26825    26.75061 
  561      92.031     -1.0255     2.69319    33.26825    26.75061 
  562      92.453     -1.0254     2.69329    33.26814    26.75061 
  563      92.857     -1.0253     2.69331    33.26814    26.75073 
  564      93.269     -1.0238      2.6934    33.26825    26.75073 
  565      93.709     -1.0226     2.69356    33.26833    26.75073 
  566      94.147     -1.0223     2.69368    33.26871    26.75098 
  567      94.543     -1.0221     2.69368    33.26917    26.75134 
  568      94.886     -1.0221     2.69376    33.26917    26.75134 
  569      95.201     -1.0219     2.69378    33.26944    26.75159 
  570      95.527     -1.0215     2.69384    33.26958    26.75171 
  571      95.879     -1.0211     2.69385    33.26962    26.75171 
  572      96.229      -1.021     2.69402    33.27021     26.7522 
  573      96.548     -1.0206     2.69404    33.27058    26.75244 
  574      96.853     -1.0204     2.69406    33.27072    26.75256 
  575      97.193       -1.02     2.69408    33.27108    26.75281 
  576      97.581       -1.02     2.69417    33.27119    26.75293 
  577      97.979       -1.02      2.6943    33.27184    26.75342 
  578      98.344     -1.0196     2.69435    33.27184    26.75342 
  579      98.662     -1.0191     2.69436    33.27184    26.75342 
  580      98.944      -1.019     2.69436    33.27184    26.75342 
  581      99.212      -1.019     2.69437    33.27181    26.75342 
  582      99.474     -1.0171     2.69443    33.27075    26.75244 
  583      99.726     -1.0163     2.69452    33.27075    26.75244 
  584      99.965      -1.016     2.69457    33.27075    26.75244 
  585     100.198      -1.016     2.69458    33.27075    26.75244 
  586     100.444      -1.016      2.6946    33.27087    26.75256 
  587     100.713      -1.016     2.69466    33.27151    26.75305 
  588     100.991     -1.0163     2.69472     33.2725    26.75378 
  589     101.246     -1.0171     2.69474    33.27349    26.75464 
  590     101.464     -1.0171     2.69475     33.2735    26.75464 
  591     101.652     -1.0172     2.69476    33.27363    26.75476 
  592     101.824     -1.0172     2.69477    33.27366    26.75476 
  593     101.993     -1.0172      2.6948    33.27396      26.755 
  594      102.16     -1.0171     2.69483    33.27416    26.75525 
  595     102.321      -1.017     2.69486    33.27436    26.75537 
  596     102.487      -1.017      2.6949    33.27479    26.75574 
  597     102.679     -1.0166     2.69494     33.2748    26.75574 
  598     102.895     -1.0166     2.69498     33.2752    26.75598 
  599     103.107     -1.0166       2.695    33.27523     26.7561 
  600     103.289     -1.0166       2.695    33.27534     26.7561 
  601     103.428      -1.017     2.69501    33.27572    26.75647 
  602     103.522      -1.017     2.69504    33.27607    26.75671 
  603      103.58      -1.017     2.69506    33.27607    26.75671 
  604     103.629      -1.017     2.69508    33.27608    26.75671 
  605     103.708     -1.0164      2.6951    33.27608    26.75671 
  606     103.832     -1.0164      2.6951    33.27608    26.75671 
  607     103.979     -1.0164     2.69511    33.27604    26.75671 
  608     104.108     -1.0159     2.69511    33.27604    26.75671 
  609     104.201     -1.0158     2.69515    33.27604    26.75671 
  610      104.28     -1.0159     2.69515    33.27608    26.75671 
  611      104.37     -1.0164     2.69514    33.27589    26.75671 
  612     104.454     -1.0165     2.69516    33.27602    26.75671 
  613     104.505     -1.0164     2.69516    33.27602    26.75671 
  614     104.525     -1.0159     2.69516    33.27602    26.75659 
  615     104.546     -1.0158     2.69518    33.27588    26.75659 
  616     104.601     -1.0158     2.69516    33.27572    26.75647 
  617     104.691     -1.0158     2.69516    33.27566    26.75635 
  618     104.786     -1.0158     2.69516    33.27566    26.75635 
  619     104.865     -1.0158     2.69516    33.27566    26.75635 
  620     104.922     -1.0158     2.69516    33.27566    26.75635 
  621     104.956      -1.016     2.69516    33.27572    26.75647 
  622     104.962      -1.016     2.69516    33.27572    26.75647 
  623     104.966      -1.016      2.6952    33.27604    26.75671 
  624      104.97     -1.0158      2.6952    33.27626    26.75684 
  625     105.011     -1.0162     2.69521    33.27633    26.75696 
  626     105.066     -1.0164     2.69523    33.27633    26.75696 
  627     105.101      -1.016     2.69523    33.27659    26.75708 
  628     105.115     -1.0159     2.69522    33.27659    26.75708 
  629      105.14      -1.016     2.69521    33.27692    26.75708 
  630     105.191     -1.0166     2.69521    33.27659    26.75708 
  631     105.246     -1.0167     2.69522    33.27644    26.75708 
  632     105.259     -1.0167     2.69522    33.27654    26.75708 
  633     105.267     -1.0162     2.69521    33.27654    26.75708 
  634     105.271     -1.0163      2.6952    33.27644    26.75708 
  635     105.272     -1.0163     2.69521    33.27642    26.75696 
  636     105.299     -1.0162     2.69521    33.27642    26.75696 
  637     105.331     -1.0161     2.69522    33.27642    26.75696 
  638     105.366     -1.0161     2.69522    33.27642    26.75696 
  639     105.405     -1.0161     2.69522    33.27642    26.75696 
  640     105.437     -1.0162     2.69522     33.2764    26.75696 
  641     105.444     -1.0161     2.69524     33.2764    26.75696 
  642     105.448     -1.0159     2.69524    33.27647    26.75696 
  643      105.45     -1.0159     2.69524    33.27647    26.75696 
  644     105.451     -1.0162     2.69524     33.2764    26.75696 
  645     105.475     -1.0162     2.69523     33.2764    26.75696 
  646     105.477     -1.0162     2.69518     33.2759    26.75659 
  647     105.477      -1.016     2.69518     33.2759    26.75659 
  648     105.477     -1.0161     2.69518     33.2759    26.75659 
  649     105.477     -1.0162     2.69518     33.2759    26.75659 
  650     105.471     -1.0166     2.69518    33.27634    26.75696 
  651     105.471     -1.0166     2.69519    33.27648    26.75708 
  652     105.471     -1.0166      2.6952    33.27661     26.7572 
  653     105.471     -1.0166      2.6952    33.27661     26.7572 
  654     105.478     -1.0166      2.6952    33.27661     26.7572 
  655     105.503     -1.0168      2.6952    33.27661     26.7572 
  656     105.535     -1.0168     2.69516    33.27644    26.75708 
  657     105.535     -1.0174     2.69511    33.27644    26.75708 
  658     105.535     -1.0177      2.6951    33.27644    26.75708 
  659     105.535     -1.0177      2.6951    33.27644    26.75708 
  660     105.508     -1.0177      2.6951    33.27644    26.75708 
  661     105.508     -1.0177      2.6951    33.27644    26.75708 
  662     105.508     -1.0175      2.6951    33.27634    26.75696 
  663     105.508     -1.0175      2.6951    33.27634    26.75696 
  664     105.514     -1.0175      2.6951    33.27634    26.75696 
  665     105.547     -1.0175     2.69511    33.27634    26.75696 
  666     105.547     -1.0177     2.69511    33.27657     26.7572 
  667     105.547      -1.018     2.69511     33.2769    26.75745 
  668     105.547      -1.018     2.69514    33.27702    26.75757 
  669     105.546      -1.018     2.69516    33.27702    26.75757 
  670     105.546      -1.018     2.69516    33.27702    26.75757 
  671     105.546     -1.0175     2.69516    33.27702    26.75757 
  672     105.546     -1.0175     2.69516    33.27702    26.75757 
  673      105.59     -1.0175     2.69513    33.27679    26.75732 
  674     105.614     -1.0175     2.69513    33.27666     26.7572 
  675     105.622     -1.0177     2.69513    33.27666     26.7572 
  676     105.623     -1.0177     2.69512    33.27666     26.7572 
  677     105.623     -1.0177     2.69512    33.27666     26.7572 
  678     105.623     -1.0177     2.69512    33.27666     26.7572 
  679     105.623     -1.0178     2.69511    33.27666     26.7572 
  680     105.622     -1.0178     2.69511    33.27666     26.7572 
  681     105.622     -1.0178     2.69511    33.27666     26.7572 
  682     105.622     -1.0179     2.69511    33.27674    26.75732 
  683     105.622     -1.0179     2.69512    33.27678    26.75732 
  684     105.637     -1.0179     2.69513    33.27688    26.75745 
  685     105.637     -1.0179     2.69513      33.277    26.75757 
  686     105.637     -1.0177     2.69513      33.277    26.75757 
  687     105.637     -1.0177     2.69515    33.27705    26.75757 
  688     105.629     -1.0177     2.69516    33.27719    26.75769 
  689     105.615     -1.0177     2.69516    33.27719    26.75769 
  690     105.615     -1.0177     2.69516    33.27719    26.75769 
  691     105.612     -1.0177     2.69516    33.27719    26.75769 
  692     105.599     -1.0177     2.69514    33.27712    26.75757 
  693     105.599     -1.0179     2.69512    33.27699    26.75757 
  694      105.59     -1.0181     2.69512    33.27699    26.75757 
  695     105.585     -1.0181     2.69511    33.27699    26.75757 
  696     105.574     -1.0181     2.69511    33.27699    26.75757 
  697     105.574     -1.0181     2.69511      33.277    26.75757 
  698     105.568     -1.0181     2.69511      33.277    26.75757 
  699     105.555     -1.0181     2.69511      33.277    26.75757 
  700     105.555     -1.0181     2.69511      33.277    26.75757 
  701     105.555     -1.0181     2.69511      33.277    26.75757 
  702     105.542     -1.0181     2.69511    33.27701    26.75757 
  703     105.509     -1.0181     2.69513    33.27713    26.75769 
  704     105.509     -1.0181     2.69515    33.27713    26.75769 
  705     105.509     -1.0177     2.69515    33.27713    26.75769 
  706     105.509     -1.0177     2.69515    33.27713    26.75769 
  707     105.534     -1.0177     2.69515    33.27711    26.75769 
  708     105.534     -1.0177     2.69514    33.27711    26.75757 
  709     105.534     -1.0177     2.69513    33.27711    26.75757 
  710     105.534     -1.0179     2.69513    33.27711    26.75757 
  711     105.522     -1.0181     2.69512    33.27707    26.75757 
  712      105.52     -1.0181     2.69512    33.27707    26.75757 
  713     105.519     -1.0181     2.69512    33.27707    26.75757 
  714     105.517     -1.0181     2.69511    33.27705    26.75757 
  715     105.503     -1.0181     2.69511    33.27705    26.75757 
  716     105.487     -1.0181     2.69511    33.27705    26.75757 
  717     105.485     -1.0181     2.69511    33.27705    26.75757 
  718     105.482     -1.0181     2.69511    33.27705    26.75757 
  719      105.48     -1.0181     2.69511    33.27705    26.75757 
  720     105.479     -1.0181      2.6951    33.27692    26.75745 
  721     105.466     -1.0181      2.6951    33.27692    26.75745 
  722     105.466     -1.0181      2.6951    33.27692    26.75745 
  723     105.466     -1.0181      2.6951    33.27692    26.75745 
  724     105.466     -1.0181     2.69509    33.27692    26.75745 
  725      105.48     -1.0183     2.69509      33.277    26.75757 
  726      105.48     -1.0183      2.6951    33.27713    26.75769 
  727      105.48     -1.0184      2.6951    33.27724    26.75781 
  728      105.48     -1.0184     2.69511    33.27738    26.75781 
  729     105.479     -1.0184     2.69511    33.27738    26.75781 
  730     105.446     -1.0184     2.69513    33.27738    26.75781 
  731     105.437     -1.0183     2.69513    33.27738    26.75781 
  732     105.437     -1.0181     2.69513    33.27735    26.75781 
  733     105.437     -1.0181     2.69513    33.27735    26.75781 
  734     105.437     -1.0181     2.69512    33.27721    26.75769 
  735     105.454     -1.0181      2.6951    33.27693    26.75745 
  736     105.462     -1.0181     2.69509    33.27693    26.75745 
  737     105.462     -1.0182     2.69509    33.27693    26.75745 
  738     105.462     -1.0182     2.69509    33.27693    26.75745 
  739     105.462     -1.0183     2.69509    33.27701    26.75757 
  740      105.46     -1.0185     2.69509    33.27713    26.75769 
  741     105.418     -1.0185     2.69509    33.27723    26.75769 
  742     105.405     -1.0185     2.69509    33.27726    26.75769 
  743     105.405     -1.0185     2.69508    33.27726    26.75769 
  744     105.405     -1.0188     2.69508    33.27726    26.75769 
  745     105.405     -1.0187     2.69508    33.27713    26.75769 
  746     105.409     -1.0185     2.69508    33.27713    26.75769 
  747     105.409     -1.0185     2.69508    33.27713    26.75769 
  748     105.409     -1.0185     2.69508    33.27713    26.75769 
  749     105.409     -1.0185     2.69509    33.27713    26.75769 
  750     105.408     -1.0182     2.69509    33.27694    26.75745 
  751     105.393     -1.0182     2.69509    33.27694    26.75745 
  752     105.393     -1.0182     2.69509    33.27694    26.75745 
  753     105.393     -1.0182     2.69509    33.27694    26.75745 
  754     105.388     -1.0183     2.69508    33.27694    26.75745 
  755     105.388     -1.0185     2.69508    33.27714    26.75769 
  756     105.388     -1.0187     2.69508    33.27736    26.75781 
  757     105.388     -1.0187     2.69508    33.27736    26.75781 
  758      105.38     -1.0187     2.69508    33.27736    26.75781 
  759      105.38     -1.0187     2.69508    33.27736    26.75781 
  760      105.38     -1.0186     2.69508    33.27727    26.75781 
  761      105.38     -1.0185     2.69508    33.27727    26.75781 
  762     105.406     -1.0185     2.69508    33.27727    26.75781 
  763     105.406     -1.0185     2.69509    33.27727    26.75781 
  764     105.406     -1.0185     2.69509    33.27727    26.75781 
  765     105.406     -1.0185     2.69509    33.27727    26.75781 
  766      105.38     -1.0185     2.69509    33.27727    26.75781 
  767     105.343     -1.0185      2.6951    33.27727    26.75781 
  768     105.343     -1.0185      2.6951    33.27727    26.75781 
  769     105.343     -1.0183      2.6951    33.27722    26.75769 
  770     105.343     -1.0183      2.6951    33.27722    26.75769 
  771     105.367     -1.0183     2.69509    33.27722    26.75769 
  772     105.385     -1.0183     2.69509    33.27722    26.75769 
  773     105.385     -1.0185     2.69509    33.27728    26.75781 
  774     105.385     -1.0189     2.69509    33.27772    26.75818 
  775     105.385     -1.0189     2.69509    33.27772    26.75818 
  776     105.356     -1.0189     2.69509    33.27772    26.75818 
  777     105.356     -1.0189     2.69509    33.27772    26.75818 
  778     105.356     -1.0189     2.69509    33.27772    26.75818 
  779     105.356     -1.0189     2.69508     33.2776    26.75806 
  780     105.372     -1.0189     2.69505    33.27728    26.75781 
  781     105.388     -1.0189     2.69505    33.27728    26.75781 
  782     105.399      -1.019     2.69505    33.27728    26.75781 
  783     105.402      -1.019     2.69505    33.27728    26.75781 
  784     105.402      -1.019     2.69505    33.27728    26.75781 
  785     105.402      -1.019     2.69507    33.27755    26.75806 
  786     105.399     -1.0191     2.69507    33.27756    26.75806 
  787     105.389      -1.019     2.69507    33.27761    26.75806 
  788     105.338     -1.0189     2.69508    33.27763    26.75806 
  789     105.316     -1.0189     2.69508    33.27763    26.75806 
  790     105.316     -1.0189     2.69508    33.27763    26.75806 
  791     105.316      -1.019     2.69508    33.27763    26.75806 
  792     105.316      -1.019     2.69508    33.27768    26.75806 
  793     105.326      -1.019     2.69506    33.27768    26.75806 
  794     105.326     -1.0192     2.69506    33.27768    26.75806 
  795     105.326     -1.0192     2.69506    33.27756    26.75806 
  796     105.326     -1.0192     2.69505    33.27756    26.75806 
  797       105.3     -1.0192     2.69505    33.27756    26.75806 
  798       105.3     -1.0192     2.69505    33.27755    26.75806 
  799       105.3     -1.0192     2.69504    33.27742    26.75793 
  800       105.3     -1.0192     2.69504    33.27742    26.75793 
  801     105.318     -1.0192     2.69504    33.27741    26.75793 
  802     105.318     -1.0192     2.69504    33.27741    26.75793 
  803     105.318     -1.0192     2.69504    33.27741    26.75793 
  804     105.318     -1.0192     2.69504    33.27741    26.75793 
  805     105.301     -1.0192     2.69504    33.27742    26.75793 
  806     105.295     -1.0192     2.69504    33.27743    26.75793 
  807     105.291     -1.0192     2.69504    33.27743    26.75793 
  808      105.27     -1.0193     2.69504    33.27753    26.75806 
  809      105.27     -1.0193     2.69504    33.27753    26.75806 
  810      105.27     -1.0194     2.69503    33.27753    26.75806 
  811      105.27     -1.0194     2.69503    33.27753    26.75806 
  812     105.304     -1.0194     2.69503    33.27751    26.75806 
  813     105.315     -1.0193     2.69503    33.27739    26.75793 
  814     105.315     -1.0193     2.69503    33.27739    26.75793 
  815     105.315     -1.0193     2.69503    33.27739    26.75793 
  816     105.315     -1.0193     2.69503    33.27739    26.75793 
  817     105.302     -1.0192     2.69502    33.27726    26.75781 
  818     105.302     -1.0192     2.69502    33.27726    26.75781 
  819     105.302     -1.0193     2.69502    33.27726    26.75781 
  820     105.302     -1.0193     2.69502    33.27726    26.75781 
  821     105.302     -1.0193     2.69502    33.27726    26.75781 
  822     105.302     -1.0195     2.69502    33.27748    26.75793 
  823     105.302     -1.0195     2.69502    33.27748    26.75793 
  824     105.278     -1.0196     2.69503    33.27774    26.75818 
  825     105.227     -1.0196     2.69503    33.27777    26.75818 
  826     105.204     -1.0196     2.69503    33.27777    26.75818 
  827     105.204     -1.0196     2.69503    33.27777    26.75818 
  828     105.204     -1.0196     2.69503    33.27777    26.75818 
  829       105.2     -1.0195     2.69503    33.27768    26.75818 
  830       105.2     -1.0195     2.69502    33.27755    26.75806 
  831       105.2     -1.0195     2.69502    33.27755    26.75806 
  832       105.2     -1.0195     2.69502    33.27755    26.75806 
  833     105.177     -1.0193     2.69502    33.27734    26.75781 
  834     105.177     -1.0193     2.69502    33.27734    26.75781 
  835     105.177     -1.0193     2.69502    33.27734    26.75781 
  836     105.177     -1.0193     2.69502    33.27734    26.75781 
  837     105.189     -1.0193     2.69502    33.27734    26.75781 
  838     105.226     -1.0194     2.69502    33.27738    26.75793 
  839     105.247     -1.0195     2.69501    33.27738    26.75793 
  840     105.247     -1.0195     2.69501    33.27738    26.75793 
  841     105.247     -1.0195     2.69501    33.27738    26.75793 
  842     105.247     -1.0195     2.69501    33.27738    26.75793 
  843      105.21     -1.0195     2.69501     33.2774    26.75793 
  844     105.169     -1.0195     2.69501    33.27743    26.75793 
  845     105.169     -1.0195     2.69501    33.27743    26.75793 
  846     105.169     -1.0195     2.69501    33.27743    26.75793 
  847     105.169     -1.0194     2.69502    33.27743    26.75793 
  848      105.21     -1.0194     2.69502    33.27743    26.75793 
  849      105.22     -1.0194     2.69502    33.27742    26.75793 
  850     105.226     -1.0194     2.69502    33.27742    26.75793 
  851     105.229     -1.0194     2.69502    33.27742    26.75793 
  852     105.229     -1.0194     2.69502    33.27742    26.75793 
  853     105.226     -1.0194     2.69499    33.27701    26.75757 
  854      105.22     -1.0194     2.69495     33.2766    26.75732 
  855     105.185     -1.0195     2.69495     33.2766    26.75732 
  856     105.185     -1.0195     2.69495     33.2766    26.75732 
  857     105.185     -1.0195     2.69495     33.2766    26.75732 
  858     105.185     -1.0195     2.69501    33.27742    26.75793 
  859     105.215     -1.0195     2.69502    33.27754    26.75806 
  860     105.215     -1.0195     2.69502    33.27754    26.75806 
  861     105.215     -1.0195     2.69503    33.27756    26.75806 
  862     105.217     -1.0194     2.69503    33.27756    26.75806 
  863     105.218     -1.0194     2.69503    33.27756    26.75806 
  864     105.218     -1.0194     2.69503    33.27756    26.75806 
  865     105.218     -1.0194     2.69503    33.27756    26.75806 
  866     105.248     -1.0194     2.69503    33.27754    26.75806 
  867     105.271     -1.0194     2.69502    33.27739    26.75793 
  868     105.271     -1.0194     2.69502    33.27739    26.75793 
  869     105.271     -1.0194     2.69502    33.27739    26.75793 
  870     105.289     -1.0194     2.69502    33.27739    26.75793 
  871     105.289     -1.0194     2.69503     33.2775    26.75793 
  872     105.289     -1.0194     2.69503     33.2775    26.75793 
  873     105.289     -1.0194     2.69503     33.2775    26.75793 
  874     105.314     -1.0194     2.69503     33.2775    26.75793 
  875     105.314     -1.0194     2.69503     33.2775    26.75793 
  876     105.314     -1.0194     2.69503     33.2775    26.75793 
  877     105.314     -1.0194     2.69503     33.2775    26.75793 
  878       105.3     -1.0193     2.69502    33.27737    26.75793 
  879     105.298     -1.0193     2.69502    33.27737    26.75793 
  880     105.298     -1.0194     2.69502    33.27726    26.75781 
  881     105.298     -1.0194     2.69502    33.27726    26.75781 
  882     105.298     -1.0194       2.695    33.27711    26.75769 
  883     105.334     -1.0195     2.69498    33.27711    26.75769 
  884     105.334     -1.0198     2.69497    33.27711    26.75769 
  885     105.334     -1.0198     2.69497    33.27711    26.75769 
  886     105.334     -1.0198     2.69497    33.27711    26.75769 
  887     105.294     -1.0198     2.69497    33.27711    26.75769 
  888     105.294     -1.0198     2.69497    33.27711    26.75769 
  889     105.294     -1.0196     2.69497    33.27705    26.75769 
  890     105.294     -1.0196     2.69498    33.27705    26.75769 
  891     105.295     -1.0196     2.69498    33.27705    26.75769 
  892     105.295     -1.0196     2.69498    33.27705    26.75769 
  893     105.295     -1.0198     2.69498    33.27728    26.75781 
  894     105.295     -1.0198     2.69498    33.27728    26.75781 
  895     105.295     -1.0198     2.69498    33.27728    26.75781 
  896     105.293     -1.0198     2.69498    33.27728    26.75781 
  897     105.293     -1.0198     2.69498    33.27728    26.75781 
  898     105.293     -1.0198     2.69498    33.27728    26.75781 
  899     105.295     -1.0198     2.69498    33.27728    26.75781 
  900     105.318     -1.0196     2.69498    33.27728    26.75781 
  901     105.356     -1.0196     2.69499    33.27728    26.75781 
  902     105.361     -1.0196       2.695    33.27729    26.75781 
  903     105.361     -1.0196       2.695    33.27729    26.75781 
  904     105.367     -1.0196     2.69501     33.2773    26.75781 
  905     105.375     -1.0195     2.69501     33.2773    26.75781 
  906     105.375     -1.0195     2.69501    33.27731    26.75781 
  907     105.367     -1.0195     2.69501    33.27731    26.75781 
  908     105.367     -1.0195     2.69501     33.2773    26.75781 
  909     105.367     -1.0195     2.69501     33.2773    26.75781 
  910     105.375     -1.0195     2.69501    33.27731    26.75781 
  911     105.379     -1.0195     2.69501    33.27731    26.75781 
  912     105.375     -1.0195     2.69501    33.27731    26.75781 
  913      105.37     -1.0194     2.69502    33.27733    26.75781 
  914      105.37     -1.0194     2.69504     33.2776    26.75806 
  915     105.371     -1.0194     2.69505    33.27763    26.75806 
  916     105.371     -1.0193     2.69505    33.27763    26.75806 
  917     105.371     -1.0193     2.69505    33.27763    26.75806 
  918     105.371     -1.0193     2.69505    33.27763    26.75806 
  919     105.403     -1.0193     2.69505    33.27761    26.75806 
  920      105.43     -1.0193     2.69504    33.27745    26.75793 
  921      105.43     -1.0193     2.69503    33.27732    26.75781 
  922      105.43     -1.0193     2.69503    33.27732    26.75781 
  923      105.43     -1.0193     2.69503    33.27732    26.75781 
  924     105.428     -1.0193     2.69502    33.27731    26.75781 
  925      105.38     -1.0193     2.69502    33.27729    26.75781 
  926     105.359     -1.0194     2.69501    33.27721    26.75781 
  927     105.359     -1.0195     2.69501     33.2772    26.75781 
  928     105.359     -1.0196       2.695     33.2772    26.75781 
  929     105.359     -1.0196     2.69498    33.27719    26.75781 
  930     105.407     -1.0197     2.69498    33.27718    26.75781 
  931     105.436     -1.0198     2.69498    33.27718    26.75781 
  932     105.443     -1.0198     2.69498    33.27718    26.75781 
  933     105.443     -1.0198     2.69498    33.27718    26.75781 
  934     105.443     -1.0198     2.69498    33.27718    26.75781 
  935     105.443     -1.0196     2.69499    33.27714    26.75769 
  936     105.413     -1.0196     2.69499    33.27714    26.75769 
  937     105.413     -1.0195     2.69499    33.27714    26.75769 
  938     105.413     -1.0195       2.695    33.27714    26.75769 
  939     105.413     -1.0195       2.695    33.27714    26.75769 
  940     105.411     -1.0195       2.695    33.27715    26.75769 
  941     105.411     -1.0195     2.69501    33.27715    26.75769 
  942     105.411     -1.0195     2.69501    33.27715    26.75769 
  943     105.411     -1.0194     2.69501    33.27715    26.75769 
  944     105.411     -1.0193     2.69501    33.27717    26.75769 
  945     105.411     -1.0193     2.69501    33.27706    26.75769 
  946     105.411     -1.0193     2.69501    33.27706    26.75769 
  947      105.42     -1.0193     2.69502    33.27706    26.75769 
  948     105.439     -1.0193     2.69501    33.27706    26.75769 
  949     105.462     -1.0193     2.69501    33.27706    26.75769 
  950     105.466     -1.0193     2.69501    33.27714    26.75769 
  951     105.466     -1.0194     2.69501    33.27714    26.75769 
  952     105.466     -1.0196     2.69501    33.27736    26.75793 
  953     105.466     -1.0196     2.69501    33.27736    26.75793 
  954     105.411     -1.0196     2.69501    33.27736    26.75793 
  955     105.393     -1.0196     2.69501    33.27736    26.75793 
  956     105.393     -1.0195     2.69501    33.27729    26.75781 
  957     105.393     -1.0194     2.69501    33.27718    26.75769 
  958     105.393     -1.0194     2.69501    33.27718    26.75769 
  959     105.406     -1.0194     2.69501    33.27717    26.75769 
  960     105.422     -1.0194     2.69501    33.27716    26.75769 
  961     105.422     -1.0194     2.69501    33.27716    26.75769 
  962     105.422     -1.0194     2.69501    33.27716    26.75769 
  963     105.422     -1.0194     2.69501    33.27716    26.75769 
  964      105.42     -1.0194     2.69501    33.27716    26.75769 
  965     105.391     -1.0194     2.69501    33.27716    26.75769 
  966     105.391     -1.0194       2.695    33.27716    26.75769 
  967     105.391     -1.0195       2.695    33.27705    26.75769 
  968     105.391     -1.0195     2.69499    33.27702    26.75757 
  969     105.402     -1.0196     2.69498    33.27699    26.75757 
  970     105.414     -1.0196     2.69498    33.27698    26.75757 
  971      105.42     -1.0196     2.69498    33.27698    26.75757 
  972     105.421     -1.0196     2.69498    33.27698    26.75757 
  973     105.422     -1.0196     2.69498    33.27698    26.75757 
  974     105.431     -1.0196     2.69498    33.27697    26.75757 
  975      105.45     -1.0196     2.69497    33.27682    26.75745 
  976      105.45     -1.0196     2.69497    33.27682    26.75745 
  977      105.45     -1.0196     2.69496    33.27681    26.75745 
  978      105.45     -1.0197     2.69496    33.27681    26.75745 
  979     105.441     -1.0197     2.69496    33.27681    26.75745 
  980     105.428     -1.0197     2.69496     33.2768    26.75745 
  981     105.417     -1.0197     2.69496     33.2768    26.75745 
  982     105.396     -1.0196     2.69496    33.27673    26.75732 
  983     105.388     -1.0196     2.69496    33.27673    26.75732 
  984     105.388     -1.0196     2.69496    33.27673    26.75732 
  985     105.388     -1.0196     2.69496    33.27673    26.75732 
  986     105.388     -1.0196     2.69496    33.27673    26.75732 
  987     105.388     -1.0196     2.69496    33.27673    26.75732 
  988     105.388     -1.0196     2.69496    33.27673    26.75732 
  989     105.388     -1.0196     2.69497    33.27686    26.75745 
  990     105.388     -1.0196     2.69497    33.27686    26.75745 
  991     105.388     -1.0196     2.69497    33.27686    26.75745 
  992     105.388     -1.0196     2.69498    33.27686    26.75745 
  993     105.388     -1.0196     2.69498    33.27686    26.75745 
  994     105.398     -1.0196     2.69498    33.27686    26.75745 
  995     105.416     -1.0195     2.69497    33.27673    26.75732 
  996     105.416     -1.0195     2.69497    33.27673    26.75732 
  997     105.416     -1.0195     2.69497    33.27673    26.75732 
  998     105.416     -1.0195     2.69497    33.27673    26.75732 
  999     105.409     -1.0196     2.69497    33.27685    26.75745 
 1000      105.37     -1.0196     2.69497    33.27687    26.75745 
 1001      105.37     -1.0196     2.69497    33.27687    26.75745 
 1002      105.37     -1.0196     2.69497    33.27687    26.75745 
 1003      105.37     -1.0196     2.69497    33.27687    26.75745 
 1004     105.375     -1.0196     2.69497    33.27687    26.75745 
 1005     105.398     -1.0196     2.69497    33.27686    26.75745 
 1006     105.405     -1.0196     2.69497    33.27685    26.75745 
 1007     105.407     -1.0196     2.69497    33.27685    26.75745 
 1008     105.415     -1.0196     2.69497    33.27685    26.75745 
 1009     105.415     -1.0195     2.69497    33.27685    26.75745 
 1010     105.415     -1.0195     2.69498    33.27687    26.75745 
 1011     105.415     -1.0195     2.69498    33.27687    26.75745 
 1012     105.415     -1.0195     2.69498    33.27687    26.75745 
 1013     105.385     -1.0195     2.69498    33.27689    26.75745 
 1014     105.385     -1.0195     2.69498    33.27689    26.75745 
 1015     105.385     -1.0195     2.69498    33.27689    26.75745 
 1016     105.385     -1.0195     2.69498    33.27689    26.75745 
 1017     105.406     -1.0195     2.69498    33.27689    26.75745 
 1018     105.411     -1.0195     2.69498    33.27689    26.75745 
 1019     105.412     -1.0195     2.69499    33.27689    26.75745 
 1020     105.414     -1.0195     2.69499    33.27688    26.75745 
 1021      105.42     -1.0194     2.69499    33.27688    26.75745 
 1022     105.436     -1.0194     2.69499    33.27688    26.75745 
 1023     105.457     -1.0194     2.69499    33.27688    26.75745 
 1024     105.459     -1.0194     2.69499    33.27688    26.75745 
 1025     105.459     -1.0194     2.69499    33.27687    26.75745 
 1026     105.459     -1.0195     2.69499    33.27687    26.75745 
 1027     105.459     -1.0195     2.69499    33.27687    26.75745 
 1028     105.429     -1.0195     2.69498    33.27687    26.75745 
 1029      105.41     -1.0195     2.69498    33.27698    26.75757 
 1030     105.408     -1.0195     2.69498    33.27698    26.75757 
 1031     105.403     -1.0196     2.69498    33.27699    26.75757 
 1032     105.368     -1.0196     2.69498    33.27701    26.75757 
 1033     105.368     -1.0196     2.69498    33.27701    26.75757 
 1034     105.368     -1.0196     2.69498    33.27701    26.75757 
 1035     105.351     -1.0196     2.69498    33.27701    26.75757 
 1036     105.333     -1.0195     2.69498    33.27701    26.75757 
 1037     105.342     -1.0194     2.69499    33.27702    26.75757 
 1038     105.351     -1.0194       2.695    33.27706    26.75769 
 1039     105.369     -1.0194       2.695    33.27706    26.75769 
 1040     105.369     -1.0194       2.695    33.27706    26.75769 
 1041     105.369     -1.0194       2.695    33.27706    26.75769 
 1042     105.369     -1.0194     2.69498    33.27679    26.75745 
 1043     105.369     -1.0196     2.69495    33.27661    26.75732 
 1044     105.369     -1.0197     2.69494    33.27661    26.75732 
 1045     105.337     -1.0197     2.69494     33.2766    26.75732 
 1046     105.323     -1.0197     2.69494     33.2766    26.75732 
 1047     105.323     -1.0197     2.69494    33.27658     26.7572 
 1048     105.323     -1.0196     2.69494    33.27652     26.7572 
 1049       105.3     -1.0196     2.69494    33.27652     26.7572 
 1050     105.282     -1.0196     2.69494    33.27652     26.7572 
 1051     105.282     -1.0196     2.69494    33.27652     26.7572 
 1052     105.267     -1.0196     2.69494    33.27652     26.7572 
 1053     105.208     -1.0198     2.69494    33.27652     26.7572 
 1054     105.208     -1.0198     2.69492    33.27652     26.7572 
 1055     105.208     -1.0198     2.69492    33.27652     26.7572 
 1056     105.208     -1.0198     2.69492    33.27652     26.7572 
 1057     105.258     -1.0198     2.69492    33.27652     26.7572 
 1058     105.293     -1.0198     2.69492    33.27652     26.7572 
 1059     105.294     -1.0198     2.69494    33.27673    26.75732 
 1060     105.294     -1.0198     2.69494    33.27673    26.75732 
 1061     105.299     -1.0198     2.69494    33.27673    26.75732 
 1062      105.31     -1.0198     2.69494    33.27673    26.75732 
 1063      105.31     -1.0198     2.69495    33.27673    26.75732 
 1064      105.31     -1.0197     2.69495    33.27673    26.75732 
 1065     105.316     -1.0196     2.69495    33.27673    26.75732 
 1066     105.329     -1.0196     2.69495    33.27668    26.75732 
 1067     105.329     -1.0196     2.69496    33.27668    26.75732 
 1068     105.329     -1.0194     2.69496    33.27668    26.75732 
 1069     105.329     -1.0194     2.69497    33.27668    26.75732 
 1070     105.329     -1.0194     2.69497    33.27668    26.75732 
 1071     105.329     -1.0194     2.69497    33.27668    26.75732 
 1072     105.329     -1.0195     2.69497    33.27668    26.75732 
 1073     105.338     -1.0196     2.69496    33.27668    26.75732 
 1074     105.338     -1.0196     2.69494    33.27649     26.7572 
 1075     105.338     -1.0198     2.69492    33.27649     26.7572 
 1076     105.341     -1.0198     2.69491    33.27644     26.7572 
 1077     105.341     -1.0199     2.69491    33.27641    26.75708 
 1078     105.341       -1.02     2.69491    33.27638    26.75708 
 1079     105.341       -1.02      2.6949    33.27637    26.75708 
 1080     105.359       -1.02      2.6949    33.27637    26.75708 
 1081     105.359       -1.02      2.6949    33.27637    26.75708 
 1082     105.368       -1.02      2.6949    33.27637    26.75708 
 1083      105.37       -1.02      2.6949    33.27637    26.75708 
 1084     105.372       -1.02      2.6949    33.27637    26.75708 
 1085     105.383       -1.02      2.6949    33.27637    26.75708 
 1086     105.383     -1.0198     2.69492    33.27641    26.75708 
 1087     105.383     -1.0198     2.69492    33.27641    26.75708 
 1088     105.383     -1.0198     2.69492    33.27641    26.75708 
 1089     105.383     -1.0198     2.69492    33.27641    26.75708 
 1090     105.383     -1.0198     2.69492    33.27641    26.75708 
 1091     105.383     -1.0198     2.69492    33.27641    26.75708 
 1092     105.383     -1.0198     2.69492    33.27641    26.75708 
 1093     105.383     -1.0198     2.69492    33.27641    26.75708 
 1094     105.383     -1.0198     2.69491    33.27628    26.75708 
 1095     105.366     -1.0198     2.69491    33.27628    26.75708 
 1096     105.366     -1.0198     2.69491    33.27628    26.75708 
 1097     105.366     -1.0198     2.69491    33.27628    26.75708 
 1098     105.366     -1.0198     2.69492    33.27642    26.75708 
 1099     105.366     -1.0198     2.69492    33.27642    26.75708 
 1100     105.366     -1.0198     2.69492    33.27642    26.75708 
 1101     105.366     -1.0198     2.69492    33.27642    26.75708 
 1102     105.364     -1.0198     2.69491    33.27628    26.75708 
 1103     105.362     -1.0198      2.6949    33.27615    26.75696 
 1104     105.362     -1.0198     2.69489    33.27615    26.75696 
 1105     105.342     -1.0198     2.69489    33.27615    26.75696 
 1106     105.295     -1.0198     2.69489    33.27615    26.75696 
 1107     105.284     -1.0198      2.6949     33.2762    26.75696 
 1108     105.284     -1.0198     2.69491    33.27633    26.75708 
 1109     105.284     -1.0198     2.69491    33.27633    26.75708 
 1110     105.284     -1.0198     2.69491    33.27633    26.75708 
 1111     105.285     -1.0198     2.69491    33.27633    26.75708 
 1112     105.285     -1.0198     2.69491    33.27633    26.75708 
 1113     105.285     -1.0198      2.6949     33.2762    26.75696 
 1114     105.285     -1.0198     2.69488    33.27595    26.75671 
 1115     105.258     -1.0198     2.69488    33.27595    26.75671 
 1116     105.243     -1.0198     2.69488    33.27595    26.75671 
 1117     105.243     -1.0198     2.69488    33.27595    26.75671 
 1118     105.243     -1.0198      2.6949    33.27622    26.75696 
 1119     105.243     -1.0198      2.6949    33.27622    26.75696 
 1120      105.29     -1.0198     2.69491    33.27632    26.75708 
 1121     105.333     -1.0198     2.69492    33.27633    26.75708 
 1122     105.344     -1.0198     2.69492    33.27635    26.75708 
 1123     105.344     -1.0197     2.69492    33.27637    26.75708 
 1124     105.344     -1.0197     2.69493    33.27639    26.75708 
 1125     105.344     -1.0196     2.69493    33.27639    26.75708 
 1126     105.306     -1.0196     2.69493    33.27637    26.75708 
 1127     105.277     -1.0196     2.69493    33.27639    26.75708 
 1128     105.277     -1.0196     2.69493    33.27639    26.75708 
 1129     105.277     -1.0196     2.69492    33.27639    26.75708 
 1130     105.277     -1.0198     2.69492    33.27645     26.7572 
 1131     105.291     -1.0198     2.69492    33.27645     26.7572 
 1132      105.31     -1.0198     2.69492    33.27645     26.7572 
 1133      105.31     -1.0198     2.69492    33.27645     26.7572 
 1134      105.31     -1.0198     2.69492    33.27645     26.7572 
 1135      105.31     -1.0198     2.69492    33.27645     26.7572 
 1136     105.241     -1.0198     2.69492    33.27645     26.7572 
 1137     105.185     -1.0197     2.69491    33.27628    26.75708 
 1138     105.185     -1.0197     2.69491    33.27628    26.75708 
 1139     105.185     -1.0197     2.69491    33.27628    26.75708 
 1140     105.185     -1.0197     2.69491    33.27628    26.75708 
 1141     105.231     -1.0197      2.6949    33.27623    26.75696 
 1142     105.232     -1.0198      2.6949    33.27622    26.75696 
 1143     105.238     -1.0198      2.6949    33.27622    26.75696 
 1144     105.238     -1.0198      2.6949    33.27622    26.75696 
 1145     105.238     -1.0198      2.6949    33.27623    26.75696 
 1146     105.231     -1.0198      2.6949    33.27623    26.75696 
 1147     105.231     -1.0198      2.6949    33.27623    26.75696 
 1148     105.171     -1.0198      2.6949    33.27626    26.75696 
 1149     105.171     -1.0198      2.6949    33.27626    26.75696 
 1150     105.171     -1.0198      2.6949    33.27626    26.75696 
 1151     105.171     -1.0198      2.6949    33.27626    26.75696 
 1152     105.189     -1.0198     2.69489    33.27612    26.75684 
 1153     105.221     -1.0198     2.69489    33.27612    26.75684 
 1154     105.249     -1.0198     2.69489    33.27612    26.75684 
 1155     105.249     -1.0198     2.69488    33.27612    26.75684 
 1156     105.249       -1.02     2.69488    33.27617    26.75696 
 1157     105.249       -1.02     2.69488    33.27617    26.75696 
 1158     105.204       -1.02     2.69488    33.27617    26.75696 
 1159     105.132       -1.02     2.69488    33.27617    26.75696 
 1160     105.132       -1.02     2.69487     33.2761    26.75684 
 1161     105.132       -1.02     2.69486    33.27605    26.75684 
 1162     105.132     -1.0201     2.69485    33.27605    26.75684 
 1163     105.129     -1.0202     2.69485    33.27605    26.75684 
 1164     105.132     -1.0202     2.69485    33.27597    26.75684 
 1165     105.151     -1.0201     2.69485    33.27596    26.75684 
 1166     105.151     -1.0201     2.69486    33.27605    26.75684 
 1167     105.151       -1.02     2.69486    33.27605    26.75684 
 1168     105.144       -1.02     2.69486    33.27607    26.75684 
 1169     105.144       -1.02     2.69487    33.27609    26.75684 
 1170     105.151       -1.02     2.69487    33.27609    26.75684 
 1171     105.151       -1.02     2.69487    33.27609    26.75684 
 1172     105.151       -1.02     2.69487    33.27609    26.75684 
 1173     105.144       -1.02     2.69487    33.27609    26.75684 
 1174     105.151     -1.0199     2.69487    33.27598    26.75684 
 1175     105.154     -1.0199     2.69487    33.27598    26.75684 
 1176     105.154     -1.0199     2.69487    33.27598    26.75684 
 1177     105.154     -1.0199     2.69487    33.27598    26.75684 
 1178     105.167     -1.0199     2.69488    33.27609    26.75684 
 1179     105.173     -1.0199     2.69488    33.27609    26.75684 
 1180     105.187     -1.0199     2.69488    33.27609    26.75684 
 1181     105.211       -1.02     2.69488    33.27609    26.75684 
 1182     105.222       -1.02     2.69486    33.27599    26.75684 
 1183     105.223       -1.02     2.69485    33.27599    26.75684 
 1184     105.226     -1.0202     2.69485    33.27599    26.75684 
 1185     105.226     -1.0202     2.69485    33.27599    26.75684 
 1186     105.226     -1.0202     2.69485    33.27599    26.75684 
 1187     105.226     -1.0202     2.69485    33.27599    26.75684 
 1188     105.226     -1.0201     2.69486    33.27599    26.75684 
 1189     105.226       -1.02     2.69486    33.27591    26.75671 
 1190     105.227       -1.02     2.69486    33.27591    26.75671 
 1191     105.228       -1.02     2.69486    33.27591    26.75671 
 1192     105.233       -1.02     2.69486     33.2759    26.75671 
 1193     105.238       -1.02     2.69486     33.2759    26.75671 
 1194     105.238       -1.02     2.69486     33.2759    26.75671 
 1195     105.238       -1.02     2.69486     33.2759    26.75671 
 1196     105.238       -1.02     2.69486     33.2759    26.75671 
 1197      105.22       -1.02     2.69486    33.27591    26.75671 
 1198      105.22       -1.02     2.69486    33.27591    26.75671 
 1199      105.22       -1.02     2.69486    33.27591    26.75671 
 1200     105.206       -1.02     2.69486    33.27592    26.75671 
 1201     105.191       -1.02     2.69486    33.27593    26.75671 
 1202     105.191       -1.02     2.69486    33.27593    26.75671 
 1203     105.191       -1.02     2.69486    33.27593    26.75671 
 1204     105.106       -1.02     2.69486    33.27593    26.75671 
 1205     105.106     -1.0201     2.69485    33.27593    26.75671 
 1206     105.106     -1.0202     2.69484    33.27593    26.75671 
 1207     105.106     -1.0202     2.69483    33.27579    26.75659 
 1208      105.12     -1.0202     2.69483    33.27579    26.75659 
 1209      105.12     -1.0202     2.69483    33.27579    26.75659 
 1210      105.12     -1.0202     2.69483    33.27579    26.75659 
 1211     105.131     -1.0202     2.69483    33.27578    26.75659 
 1212     105.131     -1.0201     2.69483    33.27578    26.75659 
 1213     105.131       -1.02     2.69484    33.27578    26.75659 
 1214     105.131       -1.02     2.69484    33.27578    26.75659 
 1215     105.165       -1.02     2.69485    33.27571    26.75659 
 1216     105.189       -1.02     2.69485    33.27571    26.75659 
 1217     105.189     -1.0199     2.69486    33.27572    26.75659 
 1218     105.189     -1.0198     2.69486    33.27572    26.75659 
 1219     105.189     -1.0198     2.69486    33.27572    26.75659 
 1220      105.17     -1.0198     2.69486    33.27572    26.75659 
 1221      105.17     -1.0198     2.69486    33.27572    26.75659 
 1222      105.17     -1.0198     2.69486    33.27572    26.75659 
 1223     105.158     -1.0198     2.69486    33.27572    26.75659 
 1224     105.138     -1.0198     2.69486    33.27573    26.75659 
 1225     105.138     -1.0199     2.69485    33.27574    26.75659 
 1226     105.113       -1.02     2.69485    33.27584    26.75671 
 1227      105.09       -1.02     2.69485    33.27586    26.75671 
 1228      105.09       -1.02     2.69485    33.27586    26.75671 
 1229      105.09       -1.02     2.69485    33.27586    26.75671 
 1230      105.09       -1.02     2.69485    33.27586    26.75671 
 1231     105.116       -1.02     2.69485    33.27586    26.75671 
 1232     105.116       -1.02     2.69486    33.27597    26.75684 
 1233     105.116       -1.02     2.69486    33.27597    26.75684 
 1234     105.116       -1.02     2.69486    33.27597    26.75684 
 1235     105.097       -1.02     2.69486    33.27599    26.75684 
 1236     105.086       -1.02     2.69486    33.27599    26.75684 
 1237     105.086       -1.02     2.69486    33.27599    26.75684 
 1238     105.086       -1.02     2.69486    33.27599    26.75684 
 1239     105.086       -1.02     2.69486    33.27599    26.75684 
 1240     105.126     -1.0198     2.69486    33.27575    26.75659 
 1241     105.154     -1.0198     2.69486    33.27573    26.75659 
 1242     105.154     -1.0198     2.69486    33.27573    26.75659 
 1243     105.154     -1.0198     2.69486    33.27573    26.75659 
 1244     105.154     -1.0198     2.69485    33.27573    26.75659 
 1245     105.098       -1.02     2.69485    33.27585    26.75671 
 1246     105.098       -1.02     2.69485    33.27585    26.75671 
 1247     105.098       -1.02     2.69485    33.27585    26.75671 
 1248     105.098       -1.02     2.69485    33.27585    26.75671 
 1249     105.119       -1.02     2.69485    33.27584    26.75671 
 1250     105.119       -1.02     2.69485    33.27584    26.75671 
 1251     105.119       -1.02     2.69485    33.27584    26.75671 
 1252     105.119       -1.02     2.69485    33.27584    26.75671 
 1253     105.119       -1.02     2.69485    33.27584    26.75671 
 1254     105.085       -1.02     2.69485    33.27586    26.75671 
 1255     105.085       -1.02     2.69485    33.27586    26.75671 
 1256     105.085       -1.02     2.69485    33.27586    26.75671 
 1257     105.085       -1.02     2.69485    33.27586    26.75671 
 1258     105.104     -1.0198     2.69485    33.27562    26.75647 
 1259     105.144     -1.0198     2.69485     33.2756    26.75647 
 1260     105.178     -1.0198     2.69485    33.27558    26.75647 
 1261     105.178     -1.0198     2.69485    33.27558    26.75647 
 1262     105.178     -1.0198     2.69485    33.27558    26.75647 
 1263     105.178     -1.0198     2.69485    33.27558    26.75647 
 1264     105.149     -1.0198     2.69485     33.2756    26.75647 
 1265     105.073     -1.0198     2.69485    33.27564    26.75647 
 1266     105.073     -1.0198     2.69485    33.27564    26.75647 
 1267     105.073     -1.0198     2.69486    33.27568    26.75659 
 1268     105.073     -1.0198     2.69486    33.27568    26.75659 
 1269     105.085     -1.0198     2.69487    33.27568    26.75659 
 1270     105.098     -1.0196     2.69487    33.27578    26.75659 
 1271     105.117     -1.0196     2.69487    33.27578    26.75659 
 1272     105.127     -1.0196     2.69487     33.2758    26.75659 
 1273     105.127     -1.0196     2.69488     33.2758    26.75659 
 1274     105.127     -1.0196     2.69488     33.2758    26.75659 
 1275     105.127     -1.0196     2.69488     33.2758    26.75659 
 1276     105.127     -1.0196     2.69488     33.2758    26.75659 
 1277     105.127     -1.0196     2.69488     33.2758    26.75659 
 1278     105.127     -1.0196     2.69487    33.27566    26.75647 
 1279     105.124     -1.0198     2.69485    33.27561    26.75647 
 1280     105.126     -1.0198     2.69483    33.27542    26.75635 
 1281     105.129     -1.0198     2.69483    33.27542    26.75635 
 1282     105.131     -1.0199     2.69482    33.27541    26.75635 
 1283     105.133       -1.02     2.69482    33.27541    26.75635 
 1284     105.139       -1.02     2.69482    33.27542    26.75635 
 1285     105.158       -1.02     2.69482    33.27542    26.75635 
 1286     105.158       -1.02     2.69483    33.27554    26.75647 
 1287     105.158       -1.02     2.69483    33.27554    26.75647 
 1288     105.158       -1.02     2.69483    33.27554    26.75647 
 1289     105.135       -1.02     2.69483    33.27555    26.75647 
 1290     105.127       -1.02     2.69484    33.27561    26.75647 
 1291     105.127     -1.0198     2.69485    33.27561    26.75647 
 1292     105.127     -1.0198     2.69485    33.27561    26.75647 
 1293     105.127     -1.0198     2.69485    33.27561    26.75647 
 1294     105.127     -1.0198     2.69485    33.27561    26.75647 
 1295     105.127     -1.0198     2.69485    33.27561    26.75647 
 1296     105.127     -1.0198     2.69485    33.27561    26.75647 
 1297     105.122     -1.0198     2.69485    33.27561    26.75647 
 1298     105.115     -1.0198     2.69485    33.27562    26.75647 
 1299     105.115     -1.0198     2.69485    33.27562    26.75647 
 1300     105.092     -1.0198     2.69485    33.27563    26.75647 
 1301     105.085     -1.0198     2.69485    33.27563    26.75647 
 1302     105.075     -1.0198     2.69485    33.27563    26.75647 
 1303     105.075     -1.0198     2.69485    33.27563    26.75647 
 1304     105.045     -1.0198     2.69484    33.27555    26.75647 
 1305      105.03     -1.0198     2.69484    33.27554    26.75647 
 1306     105.017     -1.0198     2.69484    33.27554    26.75647 
 1307     105.009     -1.0198     2.69484    33.27552    26.75635 
 1308     105.015     -1.0198     2.69483    33.27542    26.75635 
 1309     105.017     -1.0198     2.69483    33.27542    26.75635 
 1310     105.015     -1.0198     2.69483    33.27542    26.75635 
 1311     104.999     -1.0198     2.69483    33.27541    26.75635 
 1312     104.995     -1.0198     2.69484    33.27541    26.75635 
 1313     104.995     -1.0198     2.69483    33.27542    26.75635 
 1314     105.014     -1.0198     2.69483    33.27542    26.75635 
 1315     105.014     -1.0198     2.69483    33.27541    26.75635 
 1316     104.998     -1.0198     2.69483    33.27541    26.75635 
 1317     105.007     -1.0198     2.69483    33.27541    26.75635 
 1318     105.014     -1.0198     2.69483    33.27541    26.75635 
 1319     105.015     -1.0198     2.69483    33.27541    26.75635 
 1320     105.027     -1.0198     2.69483    33.27541    26.75635 
 1321     105.041     -1.0198     2.69484    33.27553    26.75635 
 1322     105.041     -1.0198     2.69485    33.27553    26.75635 
 1323     105.041     -1.0198     2.69485    33.27553    26.75635 
 1324     105.041     -1.0197     2.69485    33.27553    26.75635 
 1325      105.04     -1.0196     2.69485    33.27544    26.75635 
 1326     105.038     -1.0196     2.69485    33.27544    26.75635 
 1327     105.038     -1.0196     2.69485    33.27544    26.75635 
 1328     105.038     -1.0196     2.69485    33.27544    26.75635 
 1329     105.038     -1.0196     2.69485    33.27544    26.75635 
 1330     105.038     -1.0196     2.69485    33.27544    26.75635 
 1331     105.038     -1.0196     2.69485    33.27544    26.75635 
 1332     105.038     -1.0196     2.69485    33.27544    26.75635 
 1333     105.033     -1.0196     2.69486    33.27558    26.75647 
 1334     105.007     -1.0196     2.69486     33.2756    26.75647 
 1335     105.007     -1.0196     2.69486     33.2756    26.75647 
 1336     105.007     -1.0196     2.69486     33.2756    26.75647 
 1337     105.007     -1.0196     2.69486     33.2756    26.75647 
 1338     105.055     -1.0196     2.69486    33.27557    26.75647 
 1339     105.114     -1.0196     2.69486    33.27553    26.75635 
 1340     105.122     -1.0196     2.69485    33.27539    26.75635 
 1341     105.122     -1.0196     2.69485    33.27539    26.75635 
 1342     105.122     -1.0196     2.69485    33.27539    26.75635 
 1343     105.122     -1.0196     2.69484    33.27531    26.75623 
 1344     105.072     -1.0196     2.69484    33.27531    26.75623 
 1345     105.025     -1.0196     2.69484    33.27531    26.75623 
 1346     105.025     -1.0196     2.69484    33.27531    26.75623 
 1347     105.025     -1.0196     2.69484    33.27531    26.75623 
 1348     105.025     -1.0196     2.69484    33.27531    26.75623 
 1349     105.034     -1.0196     2.69484    33.27531    26.75623 
 1350     105.034     -1.0196     2.69484    33.27531    26.75623 
 1351     105.034     -1.0196     2.69484    33.27531    26.75623 
 1352     105.034     -1.0196     2.69484    33.27531    26.75623 
 1353     105.016     -1.0196     2.69484    33.27532    26.75623 
 1354     105.016     -1.0196     2.69484    33.27532    26.75623 
 1355     105.016     -1.0196     2.69484    33.27532    26.75623 
 1356     105.016     -1.0196     2.69484    33.27532    26.75623 
 1357     105.016     -1.0196     2.69484    33.27532    26.75623 
 1358     105.016     -1.0196     2.69484    33.27532    26.75623 
 1359     105.016     -1.0196     2.69483     33.2752     26.7561 
 1360     104.957     -1.0196     2.69482     33.2752     26.7561 
 1361     104.957     -1.0196     2.69482     33.2752     26.7561 
 1362     104.957     -1.0197     2.69482     33.2752     26.7561 
 1363     104.957     -1.0198     2.69482    33.27528    26.75623 
 1364      104.97     -1.0198     2.69482    33.27528    26.75623 
 1365     105.005     -1.0198     2.69482     33.2753    26.75623 
 1366     105.005     -1.0198     2.69482    33.27531    26.75623 
 1367     105.005     -1.0198     2.69483    33.27541    26.75635 
 1368     105.005     -1.0198     2.69483    33.27541    26.75635 
 1369     105.011     -1.0198     2.69483    33.27541    26.75635 
 1370     105.011     -1.0198     2.69483    33.27541    26.75635 
 1371     105.011     -1.0198     2.69483    33.27541    26.75635 
 1372     105.022     -1.0197     2.69483     33.2753    26.75623 
 1373     105.039     -1.0196     2.69483    33.27529    26.75623 
 1374     105.052     -1.0196     2.69484    33.27528    26.75623 
 1375     105.074     -1.0196     2.69484    33.27526    26.75623 
 1376     105.105     -1.0196     2.69484    33.27526    26.75623 
 1377     105.105     -1.0196     2.69484    33.27526    26.75623 
 1378     105.105     -1.0196     2.69484    33.27526    26.75623 
 1379     105.105     -1.0196     2.69484    33.27526    26.75623 
 1380     105.076     -1.0196     2.69484    33.27526    26.75623 
 1381     105.051     -1.0196     2.69484    33.27526    26.75623 
 1382     105.051     -1.0195     2.69484    33.27519     26.7561 
 1383     105.051     -1.0195     2.69484    33.27519     26.7561 
 1384     105.051     -1.0195     2.69484    33.27519     26.7561 
 1385     105.066     -1.0195     2.69484    33.27519     26.7561 
 1386       105.1     -1.0196     2.69484    33.27526    26.75623 
 1387     105.107     -1.0196     2.69484    33.27527    26.75623 
 1388     105.107     -1.0196     2.69485     33.2754    26.75635 
 1389     105.107     -1.0196     2.69485     33.2754    26.75635 
 1390     105.107     -1.0196     2.69485     33.2754    26.75635 
 1391     105.088     -1.0196     2.69485     33.2754    26.75635 
 1392     105.069     -1.0196     2.69485     33.2754    26.75635 
 1393     105.046     -1.0196     2.69485     33.2754    26.75635 
 1394     105.046     -1.0195     2.69485    33.27533    26.75623 
 1395     105.046     -1.0195     2.69485    33.27533    26.75623 
 1396     105.046     -1.0195     2.69485    33.27533    26.75623 
 1397     105.052     -1.0195     2.69485    33.27533    26.75623 
 1398     105.102     -1.0195     2.69485     33.2753    26.75623 
 1399     105.102     -1.0195     2.69485     33.2753    26.75623 
 1400     105.102     -1.0195     2.69485     33.2753    26.75623 
 1401     105.102     -1.0195     2.69485     33.2753    26.75623 
 1402     105.047     -1.0195     2.69485    33.27533    26.75623 
 1403     104.929     -1.0195     2.69485     33.2754    26.75635 
 1404     104.929     -1.0196     2.69485    33.27551    26.75635 
 1405     104.929     -1.0196     2.69485    33.27551    26.75635 
 1406     104.929     -1.0196     2.69485    33.27551    26.75635 
 1407     104.933     -1.0196     2.69485    33.27551    26.75635 
 1408     104.989     -1.0195     2.69486    33.27551    26.75635 
 1409     104.989     -1.0194     2.69487     33.2755    26.75635 
 1410     104.989     -1.0193     2.69487    33.27545    26.75635 
 1411     104.989     -1.0193     2.69487    33.27545    26.75635 
 1412     104.932     -1.0193     2.69487    33.27541    26.75635 
 1413     104.932     -1.0193     2.69487    33.27541    26.75635 
 1414     104.932     -1.0193     2.69486    33.27534    26.75623 
 1415     104.932     -1.0193     2.69486    33.27534    26.75623 
 1416     104.968     -1.0194     2.69485    33.27531    26.75623 
 1417     105.018     -1.0195     2.69485    33.27531    26.75623 
 1418     105.032     -1.0195     2.69485    33.27526    26.75623 
 1419     105.032     -1.0195     2.69484     33.2752     26.7561 
 1420     105.032     -1.0195     2.69484     33.2752     26.7561 
 1421     105.032     -1.0195     2.69483    33.27509     26.7561 
 1422     105.005     -1.0195     2.69483    33.27509     26.7561 
 1423     104.983     -1.0195     2.69483    33.27509     26.7561 
 1424     104.983     -1.0195     2.69483    33.27509     26.7561 
 1425     104.983     -1.0195     2.69483    33.27509     26.7561 
 1426     104.983     -1.0195     2.69483    33.27509     26.7561 
 1427     104.999     -1.0195     2.69483    33.27509    26.75598 
 1428     105.032     -1.0195     2.69482    33.27493    26.75586 
 1429     105.053     -1.0195     2.69482    33.27491    26.75586 
 1430     105.053     -1.0195     2.69482    33.27491    26.75586 
 1431     105.053     -1.0195     2.69482    33.27491    26.75586 
 1432     105.053     -1.0195     2.69482    33.27491    26.75586 
 1433     105.032     -1.0195     2.69482    33.27493    26.75586 
 1434      104.99     -1.0195     2.69483    33.27509     26.7561 
 1435     104.944     -1.0195     2.69483    33.27512     26.7561 
 1436     104.944     -1.0195     2.69483    33.27512     26.7561 
 1437     104.944     -1.0195     2.69483    33.27512     26.7561 
 1438     104.944     -1.0195     2.69483    33.27512     26.7561 
 1439     105.023     -1.0195     2.69483    33.27512     26.7561 
 1440     105.111     -1.0194     2.69483    33.27512     26.7561 
 1441     105.184     -1.0193     2.69485    33.27511     26.7561 
 1442     105.245     -1.0192     2.69487    33.27508     26.7561 
 1443     105.299     -1.0191     2.69488    33.27508    26.75598 
 1444     105.349     -1.0191     2.69488    33.27508    26.75598 
 1445     105.397     -1.0191     2.69488     33.2751    26.75598 
 1446     105.443      -1.019     2.69488     33.2751    26.75598 
 1447     105.479     -1.0189     2.69489     33.2751    26.75598 
 1448     105.479     -1.0188     2.69491     33.2751     26.7561 
 1449     105.479     -1.0185     2.69494    33.27518     26.7561 
 1450     105.479     -1.0185     2.69494    33.27518     26.7561 
 1451     105.435     -1.0185     2.69494    33.27518     26.7561 
 1452      105.38     -1.0185     2.69494    33.27518     26.7561 
 1453      105.32     -1.0185     2.69492    33.27508    26.75598 
 1454     105.258     -1.0185     2.69492    33.27504    26.75598 
 1455     105.203     -1.0185     2.69492    33.27501    26.75598 
 1456     105.158     -1.0186      2.6949    33.27499    26.75598 
 1457     105.118     -1.0187     2.69489    33.27497    26.75586 
 1458      105.08     -1.0187     2.69489    33.27494    26.75586 
 1459     105.042     -1.0187     2.69489    33.27494    26.75586 
 1460     105.004     -1.0187     2.69488    33.27494    26.75586 
 1461     104.961     -1.0187     2.69488    33.27493    26.75586 
 1462      104.92     -1.0187     2.69488     33.2749    26.75586 
 1463     104.885     -1.0187     2.69488    33.27488    26.75586 
 1464     104.852     -1.0189     2.69484    33.27471    26.75574 
 1465     104.818     -1.0189     2.69484    33.27471    26.75574 
 1466     104.783     -1.0189     2.69484    33.27471    26.75574 
 1467     104.749     -1.0189     2.69484    33.27471    26.75574 
 1468      104.72     -1.0189     2.69484    33.27473    26.75574 
 1469     104.696     -1.0189     2.69487    33.27514     26.7561 
 1470     104.678     -1.0187     2.69489    33.27515     26.7561 
 1471     104.663     -1.0185      2.6949    33.27515     26.7561 
 1472     104.648     -1.0185      2.6949    33.27515     26.7561 
 1473     104.632     -1.0185      2.6949    33.27517     26.7561 
 1474     104.616     -1.0185      2.6949    33.27517     26.7561 
 1475     104.597     -1.0185      2.6949    33.27518     26.7561 
 1476     104.578     -1.0185      2.6949    33.27519     26.7561 
 1477     104.566     -1.0184     2.69491    33.27522     26.7561 
 1478     104.565     -1.0184     2.69491    33.27522     26.7561 
 1479     104.564     -1.0184     2.69491    33.27522     26.7561 
 1480     104.564     -1.0184     2.69491    33.27522     26.7561 
 1481     104.564     -1.0184      2.6949    33.27516     26.7561 
 1482     104.565     -1.0185     2.69489    33.27516     26.7561 
 1483     104.579     -1.0186     2.69489    33.27516     26.7561 
 1484     104.579     -1.0186     2.69489    33.27516     26.7561 
 1485     104.579     -1.0186     2.69489    33.27516     26.7561 
 1486     104.579     -1.0186     2.69489    33.27516     26.7561 
 1487      104.58     -1.0185     2.69489    33.27505    26.75598 
 1488      104.58     -1.0185     2.69489    33.27505    26.75598 
 1489      104.58     -1.0185     2.69489    33.27505    26.75598 
 1490     104.581     -1.0185     2.69489    33.27505    26.75598 
 1491     104.588     -1.0185      2.6949    33.27518     26.7561 
 1492     104.592     -1.0185     2.69491    33.27523     26.7561 
 1493     104.595     -1.0185     2.69491    33.27523     26.7561 
 1494     104.595     -1.0185     2.69491    33.27523     26.7561 
 1495     104.595     -1.0183     2.69492    33.27531    26.75623 
 1496     104.595     -1.0183     2.69492    33.27531    26.75623 
 1497     104.594     -1.0183     2.69492    33.27531    26.75623 
 1498     104.594     -1.0183     2.69493    33.27536    26.75623 
 1499     104.591     -1.0182     2.69494    33.27539    26.75623 
 1500     104.582     -1.0181     2.69495    33.27542    26.75623 
 1501     104.568     -1.0181     2.69495    33.27543    26.75623 
 1502     104.553     -1.0181     2.69496    33.27558    26.75635 
 1503     104.553     -1.0181     2.69496    33.27558    26.75635 
 1504     104.553     -1.0181     2.69496    33.27558    26.75635 
 1505     104.553     -1.0181     2.69496    33.27558    26.75635 
 1506      104.55     -1.0181     2.69496    33.27558    26.75635 
 1507      104.55     -1.0181     2.69494    33.27542    26.75623 
 1508      104.55     -1.0181     2.69493    33.27542    26.75623 
 1509      104.55     -1.0183     2.69493    33.27542    26.75623 
 1510     104.501     -1.0183     2.69493    33.27542    26.75623 
 1511      104.44     -1.0183     2.69493    33.27542    26.75623 
 1512     104.395     -1.0183     2.69493    33.27542    26.75623 
 1513     104.379     -1.0183     2.69493    33.27542    26.75623 
 1514     104.373     -1.0183     2.69492    33.27536    26.75623 
 1515     104.352     -1.0183     2.69491    33.27524     26.7561 
 1516     104.317     -1.0183      2.6949     33.2752     26.7561 
 1517     104.281     -1.0183      2.6949     33.2752     26.7561 
 1518     104.244     -1.0183      2.6949    33.27517     26.7561 
 1519     104.195     -1.0183      2.6949    33.27517     26.7561 
 1520     104.129     -1.0183      2.6949    33.27519     26.7561 
 1521     104.055     -1.0183     2.69489    33.27519     26.7561 
 1522     103.989     -1.0183     2.69489    33.27519     26.7561 
 1523      103.93     -1.0183     2.69489    33.27519     26.7561 
 1524     103.862     -1.0183     2.69488    33.27519     26.7561 
 1525     103.786     -1.0183     2.69488    33.27519     26.7561 
 1526     103.714     -1.0183     2.69488    33.27518     26.7561 
 1527     103.645     -1.0183     2.69488    33.27518     26.7561 
 1528     103.562     -1.0183     2.69487    33.27518     26.7561 
 1529      103.46     -1.0184     2.69485    33.27508    26.75598 
 1530     103.348     -1.0185     2.69483    33.27507    26.75598 
 1531     103.227     -1.0185     2.69482    33.27507    26.75598 
 1532     103.102     -1.0185     2.69482    33.27506    26.75598 
 1533     102.984     -1.0185     2.69482      33.275    26.75598 
 1534     102.876     -1.0185     2.69482      33.275    26.75598 
 1535     102.773     -1.0185     2.69481    33.27506    26.75598 
 1536     102.671     -1.0185     2.69479    33.27507    26.75598 
 1537     102.566     -1.0185     2.69479    33.27506    26.75598 
 1538     102.449     -1.0186     2.69479    33.27499    26.75598 
 1539     102.308     -1.0187     2.69478    33.27492    26.75598 
 1540     102.143     -1.0187     2.69476    33.27492    26.75586 
 1541     101.968     -1.0187     2.69474    33.27497    26.75586 
 1542     101.797     -1.0187     2.69473    33.27492    26.75586 
 1543     101.641     -1.0187     2.69473    33.27492    26.75586 
 1544     101.501     -1.0187     2.69473    33.27492    26.75598 
 1545     101.364     -1.0187     2.69472    33.27497    26.75598 
 1546     101.211     -1.0187     2.69472    33.27502    26.75598 
 1547      101.03     -1.0187     2.69472    33.27502    26.75598 
 1548     100.823     -1.0187     2.69472    33.27502    26.75598 
 1549     100.604     -1.0187      2.6947    33.27502    26.75598 
 1550     100.382     -1.0187     2.69467    33.27498    26.75598 
 1551      100.16     -1.0187     2.69466    33.27498    26.75598 
 1552      99.937     -1.0187     2.69465    33.27485    26.75586 
 1553      99.713     -1.0187     2.69465    33.27484    26.75586 
 1554       99.49     -1.0187     2.69465    33.27484    26.75586 
 1555      99.264     -1.0187     2.69462    33.27484    26.75586 
 1556      99.015     -1.0187     2.69457    33.27432    26.75537 
 1557      98.722     -1.0189     2.69453    33.27428    26.75537 
 1558      98.402     -1.0193     2.69449    33.27428    26.75537 
 1559      98.081     -1.0196     2.69445    33.27427    26.75537 
 1560      97.764     -1.0197     2.69443    33.27427    26.75537 
 1561       97.45     -1.0197     2.69442    33.27428    26.75537 
 1562      97.141     -1.0197      2.6944    33.27431    26.75537 
 1563      96.832     -1.0197     2.69439    33.27431    26.75537 
 1564      96.513     -1.0197     2.69438    33.27431    26.75537 
 1565      96.181     -1.0197     2.69437    33.27426    26.75537 
 1566      95.842     -1.0197     2.69434    33.27423    26.75537 
 1567      95.503     -1.0198      2.6943    33.27401    26.75513 
 1568      95.151       -1.02     2.69426    33.27401    26.75513 
 1569      94.777     -1.0202     2.69422    33.27399    26.75513 
 1570      94.391     -1.0204      2.6942     33.2739    26.75513 
 1571      94.002     -1.0206     2.69417    33.27387    26.75513 
 1572      93.616     -1.0206     2.69414    33.27381      26.755 
 1573      93.226     -1.0206     2.69409    33.27343    26.75476 
 1574      92.823     -1.0208     2.69402    33.27314    26.75452 
 1575        92.4     -1.0213     2.69396    33.27314    26.75452 
 1576      91.955     -1.0216     2.69393    33.27314    26.75452 
 1577      91.496     -1.0216     2.69391    33.27312    26.75452 
 1578       91.04     -1.0216     2.69389    33.27312    26.75452 
 1579      90.598     -1.0217     2.69386    33.27312    26.75452 
 1580      90.161     -1.0217     2.69383    33.27298    26.75439 
 1581      89.718     -1.0219     2.69379    33.27293    26.75439 
 1582      89.264      -1.022     2.69375    33.27277    26.75427 
 1583      88.797     -1.0221     2.69372    33.27277    26.75427 
 1584      88.303     -1.0223     2.69368    33.27274    26.75427 
 1585      87.778     -1.0223     2.69365    33.27266    26.75415 
 1586      87.229     -1.0223     2.69361    33.27245    26.75403 
 1587      86.664     -1.0223     2.69358    33.27245    26.75403 
 1588      86.082     -1.0224     2.69353    33.27245    26.75403 
 1589      85.491     -1.0228     2.69349    33.27243    26.75403 
 1590      84.905     -1.0233     2.69344    33.27238    26.75403 
 1591      84.326     -1.0234     2.69339    33.27223    26.75391 
 1592      83.747     -1.0235     2.69334    33.27223    26.75391 
 1593      83.146     -1.0238     2.69309    33.26953    26.75171 
 1594      82.502     -1.0276     2.69168    33.25495    26.73999 
 1595      81.816     -1.0375     2.68871    33.22591     26.7168 
 1596      81.109     -1.0501     2.68625     33.2169    26.71008 
 1597      80.403     -1.0595     2.68618    33.21668    26.70996 
 1598      79.711     -1.0635     2.68584    33.21645    26.70996 
 1599      79.035     -1.0637     2.68576     33.2068    26.70215 
 1600      78.373     -1.0638     2.68474    33.20519    26.70093 
 1601      77.718     -1.0667     2.68423    33.20307    26.69922 
 1602      77.046      -1.072     2.68417    33.19973    26.69678 
 1603       76.33     -1.0782     2.68235    33.18769    26.68713 
 1604      75.559     -1.0901     2.67805    33.14274    26.65112 
 1605      74.751     -1.1078     2.67425    33.11516    26.62939 
 1606      73.942     -1.1218     2.67301     33.1139    26.62891 
 1607      73.154     -1.1265     2.67287     33.1138    26.62878 
 1608      72.379     -1.1273     2.67287    33.11281    26.62817 
 1609      71.598     -1.1277     2.67271    33.11281    26.62805 
 1610      70.807     -1.1285     2.67253    33.11281    26.62805 
 1611      70.011     -1.1287     2.67143    33.09851    26.61658 
 1612      69.215     -1.1321     2.67055    33.09235    26.61169 
 1613       68.43     -1.1346     2.67043    33.09223    26.61169 
 1614      67.669     -1.1358     2.67029    33.09075    26.61121 
 1615      66.951     -1.1387     2.66921    33.09075     26.6106 
 1616      66.283     -1.1443     2.66822    33.09137    26.61047 
 1617      65.656     -1.1513     2.66795    33.08114    26.60315 
 1618      65.057     -1.1636     2.66786    33.07864    26.60156 
 1619      64.473     -1.1837     2.66645    33.07427    26.59924 
 1620      63.897     -1.2035     2.66333    33.07427    26.59863 
 1621       63.33     -1.2161     2.66135    33.06147    26.58923 
 1622      62.776     -1.2233     2.65969    33.04705    26.57776 
 1623      62.234     -1.2283     2.65871    33.03951    26.57178 
 1624      61.693     -1.2305     2.65799    33.03242    26.56616 
 1625      61.151     -1.2305     2.65782    33.03043    26.56445 
 1626      60.612     -1.2313     2.65734    33.02508    26.56018 
 1627      60.073     -1.2317     2.65704    33.02174     26.5575 
 1628      59.526     -1.2323     2.65551    33.00182    26.54138 
 1629      58.969     -1.2346     2.65449    32.99074    26.53247 
 1630      58.401     -1.2372     2.65391    32.98602    26.52869 
 1631      57.822     -1.2372     2.65355    32.98145    26.52502 
 1632      57.237     -1.2372     2.65308    32.97538    26.52002 
 1633      56.647     -1.2372     2.65295    32.97411    26.51904 
 1634      56.053      -1.237     2.65295    32.97397    26.51892 
 1635      55.461     -1.2297     2.65295    32.96643    26.51257 
 1636      54.885     -1.2231     2.65295    32.96536    26.51147 
 1637      54.331     -1.2178     2.65378    32.95951    26.50659 
 1638      53.786     -1.2088     2.65392    32.95769    26.50488 
 1639      53.238     -1.1921     2.65399    32.94061    26.49048 
 1640      52.677     -1.1753     2.65409    32.92384    26.47632 
 1641      52.088     -1.1688      2.6544    32.92128    26.47412 
 1642      51.463      -1.168      2.6544    32.92079    26.47363 
 1643      50.812     -1.1653     2.65447    32.91917    26.47229 
 1644      50.163     -1.1614      2.6545    32.91569    26.46936 
 1645      49.553     -1.1548     2.65461    32.91031    26.46472 
 1646      49.001     -1.1395     2.65464    32.89426    26.45129 
 1647      48.498     -1.1063     2.65606    32.87749    26.43665 
 1648      48.011     -1.0543     2.65983    32.87212    26.43066 
 1649        47.5     -1.0082     2.66295    32.86437    26.42285 
 1650      46.939     -0.9956     2.66342    32.86282    26.42114 
 1651      46.328     -0.9939     2.66342    32.85752    26.41675 
 1652      45.695      -0.993     2.66398    32.85731    26.41663 
 1653      45.083     -0.9867     2.66407    32.85582    26.41516 
 1654       44.52      -0.913     2.66564    32.79869    26.36646 
 1655      44.007     -0.6233     2.68459    32.73978    26.30823 
 1656      43.524     -0.1405     2.72253    32.72554    26.27673 
 1657      43.036      0.2331     2.73869    32.58013    26.14172 
 1658      42.523      0.2566     2.73934    32.54015     26.1084 
 1659      42.006       0.312     2.74382    32.52427    26.09277 
 1660      41.509       0.334     2.74986    32.52405    26.09155 
 1661      41.022      0.8125     2.77725    32.43181    25.99146 
 1662      40.518      1.7714     2.84827     32.3408    25.85779 
 1663      39.988      2.7531     2.91868    32.21459    25.68274 
 1664       39.44      3.0919     2.93814    32.19762    25.64075 
 1665      38.868      3.0919     2.94344    32.19762    25.64075 
 1666      38.281      3.0919      2.9446    32.19762    25.64075 
 1667      37.735      3.0919     2.94515    32.19762    25.64075 
 1668      37.281      3.0919     2.94578    32.20547    25.64697 
 1669      36.872      3.0919     2.94578    32.20569    25.64722 
 1670      36.411      3.0919     2.94578    32.20593    25.64734 
 1671      35.906      3.1015     2.95047    32.25323     25.6842 
 1672      35.448      3.1015     2.95047    32.25323     25.6842 
 1673      35.073      3.1015     2.95047    32.25323     25.6842 
 1674       34.74      3.1015     2.95047    32.25323     25.6842 
 1675        34.4      3.0912     2.94386    32.24348    25.68335 
 1676      34.045       3.089     2.94296    32.24348    25.68335 
 1677       33.71      3.0607     2.94295    32.24348    25.68335 
 1678      33.408      3.0217     2.94295    32.24348    25.68335 
 1679      33.112      3.0217     2.94295    32.24348    25.68335 
 1680      32.813      3.0217     2.94296    32.24364    25.68335 
 1681      32.533      3.0217     2.94296    32.24392    25.68347 
 1682      32.294      3.0356     2.94295    32.24407    25.68372 
 1683      32.082      3.0356     2.94854    32.28003     25.7113 
 1684      31.869      3.0356     2.94887     32.2979    25.72559 
 1685      31.647      3.0601     2.95217    32.30201    25.72668 
 1686      31.424      3.0976     2.95217    32.31747    25.72668 
 1687      31.207      3.0976      2.9622    32.31747    25.72668 
 1688      31.001      3.1051     2.97675    32.31747    25.72668 
 1689      30.814      3.3419     2.99223    32.28003    25.68457 
 1690      30.658      3.5961     2.99223    32.26436    25.64893 
 1691       30.53      3.7665     2.99223     32.0961    25.49915 
 1692      30.399      3.8466     2.99223    32.01752    25.42908 
 1693       30.24      3.9063     2.97621    31.77048    25.22693 
 1694      30.054      3.9063     2.97621    31.77048    25.22693 
 1695      29.854      3.9063     2.97621    31.77048    25.22693 
 1696      29.654      3.9063     2.97621    31.77048    25.22693 
 1697      29.465      3.9185     2.97889    31.79032    25.24158 
 1698      29.303      3.9185     3.00778    32.08742    25.44812 
 1699      29.175      3.9185     3.02431    32.08742    25.44812 
 1700      29.061      4.0274     3.02679    32.08742    25.44812 
 1701      28.919      4.2213     3.02925    32.08742    25.44812 
 1702      28.738      4.2557     3.02925    32.05396    25.41821 
 1703      28.551      4.2855     3.02679    32.02531    25.39246 
 1704      28.375      4.3068     3.02431    32.02531    25.39246 
 1705      28.199      4.3068     3.02679    32.02531    25.39246 
 1706      28.011      4.2855     3.02925    32.02531    25.39246 
 1707      27.814      4.2557     3.02925    32.05443    25.41858 
 1708      27.621      4.2363     3.03025    32.08515    25.44482 
 1709      27.442      4.1603     3.03297    32.19144    25.53687 
 1710      27.274      4.1396     3.03297    32.19144    25.53687 
 1711      27.108      4.1273     3.03297    32.19144    25.53687 
 1712      26.937      4.1092     3.03297    32.19144    25.53687 
 1713      26.764      4.1092      3.0273    32.17548     25.5293 
 1714      26.594      4.1092      3.0273     32.1754    25.52917 
 1715       26.42      4.1092      3.0273    32.17531    25.52905 
 1716      26.235      4.2344      3.0273    32.17531    25.51672 
 1717      26.049      4.2885     3.02887     32.1754    25.51135 
 1718      25.882       4.295     3.04027    32.14594    25.48865 
 1719       25.74       4.311     3.05207    32.14559     25.4873 
 1720      25.601      4.3917      3.0557    32.14594    25.48535 
 1721      25.426       4.551     3.06143    32.18068    25.47742 
 1722      25.199      4.7087     3.07484    32.18068    25.47217 
 1723      24.951      4.7343     3.08107    32.17398    25.46411 
 1724      24.726       4.747     3.08107    32.15971    25.45142 
 1725      24.539       4.754     3.08107    32.15971    25.45068 
 1726      24.381      4.7688     3.08107    32.15971     25.4491 
 1727      24.222       4.754     3.07878    32.14769    25.44116 
 1728       24.05      4.7558     3.07853    32.14315    25.43738 
 1729       23.87      4.7558     3.07786     32.1355    25.43152 
 1730      23.672      4.7558     3.07738    32.13513    25.43152 
 1731      23.445      4.7515     3.07738    32.13513    25.43152 
 1732      23.216      4.7509     3.07738    32.13513    25.43152 
 1733      23.018      4.7509     3.07738    32.13513    25.43152 
 1734      22.856      4.7509     3.08336    32.19121    25.47595 
 1735      22.708      4.7509      3.0863    32.20429     25.4856 
 1736      22.541      4.7808     3.08642    32.21076     25.4856 
 1737      22.336      4.8308     3.08892    32.21464     25.4856 
 1738      22.098      4.8385     3.09159    32.21521     25.4856 
 1739      21.846      4.8419     3.09233    32.21464    25.48486 
 1740      21.614      4.8472     3.09235    32.21464    25.48425 
 1741      21.439      4.8514     3.09289    32.21464    25.48376 
 1742      21.322      4.8566     3.09289    32.21246    25.48157 
 1743      21.219      4.8566     3.09235    32.20629    25.47668 
 1744      21.085      4.8566     3.09233    32.20612    25.47644 
 1745        20.9      4.8703     3.09233    32.19904    25.46936 
 1746      20.674      4.8709     3.09235    32.19904    25.46936 
 1747      20.441      4.8715     3.09283    32.19904    25.46936 
 1748      20.227      4.8703     3.09283    32.19904    25.46936 
 1749      20.032      4.8703     3.09346    32.20147    25.46997 
 1750      19.835      4.8746     3.09346    32.20147    25.46997 
 1751      19.603      4.8756     3.09346    32.20147    25.46997 
 1752      19.334      4.8833      3.0942    32.20147    25.46997 
 1753      19.062      4.8865      3.0942     32.1997    25.46814 
 1754      18.802      4.8967      3.0942    32.18995    25.45935 
 1755      18.525      4.9078     3.09433    32.18146    25.45142 
 1756       18.19      4.9078     3.09433    32.18146    25.45142 
 1757      17.776      4.9078     3.09433    32.18146    25.45142 
 1758      17.289      4.9078     3.09433    32.18146    25.45142 
 1759      16.751      4.8876     3.09352    32.19196    25.46191 
 1760       16.19      4.8829     3.09328    32.19403    25.46411 
 1761       15.64      4.8777     3.09325    32.19784    25.46765 
 1762       15.12      4.8777     3.09325      32.199    25.46863 
 1763      14.615      4.8777     3.09328    32.19926    25.46875 
 1764      14.108      4.8829     3.09352    32.19986    25.46875 
 1765      13.612      4.8903     3.09551    32.21383      25.479 
 1766      13.141      4.9092     3.09772    32.22119    25.48279 
 1767      12.693      4.9092     3.09845    32.22971    25.48938 
 1768       12.25      4.9092     3.09845    32.22971    25.48938 
 1769      11.806      4.9092     3.09845    32.22971    25.48938 
 1770      11.349       4.910     3.09845    32.22971    25.48938 
 1771      10.878       4.910     3.09802    32.22541    25.48596 
 1772      10.429       4.910     3.09802    32.22522    25.48584 
 1773      10.057       4.910     3.09802    32.22522    25.48584 
 1774       9.799      4.9156     3.09802    32.22522    25.48572 
 1775       9.637      4.9186     3.09865    32.22541     25.4856 
 1776       9.525      4.9193     3.09899    32.22632     25.4856 
 1777       9.434      4.9209     3.09899    32.22632     25.4856 
 1778       9.323      4.9209     3.09899    32.22632     25.4856 
 1779       9.149      4.9207     3.09899    32.22632     25.4856 
 1780       8.909      4.9193     3.09876    32.22548    25.48511 
 1781       8.647      4.9186     3.09841    32.22227    25.48254 
 1782       8.416      4.9193     3.09841    32.22187    25.48218 
 1783       8.229      4.9207     3.09841    32.22171    25.48193 
 1784       8.072      4.9207     3.09841    32.22052    25.48096 
 1785       7.954      4.9227     3.09869    32.22052    25.48096 
 1786       7.893      4.9276     3.09898    32.22052    25.48096 
 1787       7.881      4.9299     3.09904    32.22126    25.48096 
 1788       7.879      4.9306      3.0993    32.22187    25.48096 
 1789       7.834      4.9309     3.09957    32.22339    25.48206 
 1790        7.71      4.9317     3.09957    32.22339    25.48206 
 1791       7.529      4.9317     3.09957    32.22339    25.48206 
 1792       7.353      4.9317     3.09957    32.22339    25.48206 
 1793       7.282      4.9317     3.09937    32.22326    25.48206 
 1794       7.282      4.9297     3.09937    32.22324    25.48218 
 1795       7.282      4.9297     3.09937    32.22324    25.48218 
 1796       7.242      4.9297     3.09937    32.22324    25.48218 
 1797       7.242      4.9291     3.09931    32.22326     25.4823 
 1798       7.242       4.927     3.09944    32.22668    25.48523 
 1799       7.238       4.927     3.09952     32.2276    25.48596 
 1800       7.126      4.9256     3.09965    32.22928    25.48743 
 1801       6.899      4.9256     3.09956    32.22959    25.48767 
 1802       6.602      4.9256     3.09952    32.22966    25.48767 
 1803       6.313      4.9256     3.09956    32.22966    25.48767 
 1804       6.077      4.9257     3.09965    32.22959    25.48767 
 1805       5.923      4.9277      3.0997    32.22928    25.48718 
 1806       5.875       4.930      3.0997    32.22745    25.48547 
 1807       5.855       4.932      3.0996     32.2262    25.48425 
 1808       5.854       4.932      3.0997     32.2262    25.48425 
 1809       5.819       4.932     3.09975     32.2262    25.48425 
 1810        5.65       4.932     3.09975     32.2262    25.48425 
 1811       5.412      4.9308     3.09974    32.22737    25.48535 
 1812       5.173      4.9288      3.0997    32.22897    25.48682 
 1813       4.975      4.9288      3.0997    32.22906    25.48682 
 1814       4.789      4.9285      3.0997    32.22912    25.48694 
 1815       4.587      4.9283     3.09965    32.22913    25.48694 
 1816       4.423      4.9276     3.09958    32.22917    25.48706 
 1817       4.407      4.9276     3.09958    32.22945     25.4873 
 1818       4.384      4.9267     3.09958    32.23001    25.48779 
 1819       4.367      4.9259     3.09958     32.2308    25.48853 
 1820       4.361      4.9259     3.09958     32.2308    25.48853 
 1821       4.276      4.9259     3.09958     32.2308    25.48853 
 1822        4.24      4.9259     3.09962     32.2308    25.48853 
 1823       4.226      4.9272     3.09973    32.23085     25.4884 
 1824       4.196      4.9287     3.09977    32.23085    25.48828 
 1825       4.194      4.9292     3.09979    32.23081    25.48816 
 1826       4.165      4.9295     3.09989    32.23057    25.48804 
 1827       4.107      4.9297     3.09989    32.23044    25.48792 
 1828       3.889      4.9302     3.09989    32.23044    25.48779 
 1829       3.627      4.9302     3.09989    32.23044    25.48779 
 1830        3.39      4.9302      3.0998    32.22965    25.48718 
 1831       3.211       4.931     3.09973    32.22816    25.48596 
 1832       3.044       4.931     3.09968    32.22767    25.48584 
 1833       2.853       4.931     3.09959    32.22767    25.48584 
 1834       2.677       4.931     3.09947    32.22767    25.48584 
 1835       2.535      4.9283     3.09939    32.22767    25.48584 
 1836       2.363      4.9259      3.0993    32.22858    25.48682 
 1837       2.104      4.9238     3.09928    32.23052    25.48853 
 1838        1.82      4.9237     3.09928    32.23076    25.48877 
 1839       1.634      4.9237     3.09928    32.23085    25.48877 
 1840       1.525      4.9237     3.09928     32.2309    25.48877 
 1841       1.378      4.9237     3.09954     32.2309    25.48877 
 1842       1.215      4.9299     3.09994     32.2309    25.48816 
 1843       1.115      4.9362     3.10037     32.2309    25.48755 
 1844       1.076      4.9387     3.10052    32.23085    25.48718 
